workerCounter,assignmentId,workerId,hitId,trial type,set,global index,reaction time,response1,response2,responseLoc1,responseLoc2,stimulus1,stimulus2,stimulus3
13,3I7DHKZYGO6PDFMPKD6SLR1H9R75FL,AKIDVQHDUIN3L,3WPCIUYH1AESDDLQ40OYBN9QSLSDT1,1,1,7,5978,18,19,0,1,18,19,16
13,3I7DHKZYGO6PDFMPKD6SLR1H9R75FL,AKIDVQHDUIN3L,3WPCIUYH1AESDDLQ40OYBN9QSLSDT1,1,1,15,3819,10,17,1,2,18,10,17
13,3I7DHKZYGO6PDFMPKD6SLR1H9R75FL,AKIDVQHDUIN3L,3WPCIUYH1AESDDLQ40OYBN9QSLSDT1,1,1,16,3702,20,12,2,1,16,12,20
13,3I7DHKZYGO6PDFMPKD6SLR1H9R75FL,AKIDVQHDUIN3L,3WPCIUYH1AESDDLQ40OYBN9QSLSDT1,2,999,18,4557,3,7,0,2,3,1,7
13,3I7DHKZYGO6PDFMPKD6SLR1H9R75FL,AKIDVQHDUIN3L,3WPCIUYH1AESDDLQ40OYBN9QSLSDT1,2,999,19,4392,4,7,0,2,4,1,7
13,3I7DHKZYGO6PDFMPKD6SLR1H9R75FL,AKIDVQHDUIN3L,3WPCIUYH1AESDDLQ40OYBN9QSLSDT1,2,999,20,6574,3,5,2,0,5,4,3
13,3I7DHKZYGO6PDFMPKD6SLR1H9R75FL,AKIDVQHDUIN3L,3WPCIUYH1AESDDLQ40OYBN9QSLSDT1,2,999,21,5336,7,4,1,2,5,7,4
13,3I7DHKZYGO6PDFMPKD6SLR1H9R75FL,AKIDVQHDUIN3L,3WPCIUYH1AESDDLQ40OYBN9QSLSDT1,2,999,22,7414,3,5,2,0,5,6,3
13,3I7DHKZYGO6PDFMPKD6SLR1H9R75FL,AKIDVQHDUIN3L,3WPCIUYH1AESDDLQ40OYBN9QSLSDT1,2,999,23,5898,2,5,0,1,2,5,1
13,3I7DHKZYGO6PDFMPKD6SLR1H9R75FL,AKIDVQHDUIN3L,3WPCIUYH1AESDDLQ40OYBN9QSLSDT1,2,999,24,3141,7,4,1,2,2,7,4
13,3I7DHKZYGO6PDFMPKD6SLR1H9R75FL,AKIDVQHDUIN3L,3WPCIUYH1AESDDLQ40OYBN9QSLSDT1,2,999,25,2130,6,1,0,2,6,4,1
13,3I7DHKZYGO6PDFMPKD6SLR1H9R75FL,AKIDVQHDUIN3L,3WPCIUYH1AESDDLQ40OYBN9QSLSDT1,2,999,26,2307,1,2,0,2,1,3,2
13,3I7DHKZYGO6PDFMPKD6SLR1H9R75FL,AKIDVQHDUIN3L,3WPCIUYH1AESDDLQ40OYBN9QSLSDT1,2,999,27,2567,2,5,2,0,5,3,2
13,3I7DHKZYGO6PDFMPKD6SLR1H9R75FL,AKIDVQHDUIN3L,3WPCIUYH1AESDDLQ40OYBN9QSLSDT1,2,999,28,3393,5,2,1,2,4,5,2
13,3I7DHKZYGO6PDFMPKD6SLR1H9R75FL,AKIDVQHDUIN3L,3WPCIUYH1AESDDLQ40OYBN9QSLSDT1,2,999,29,2830,2,1,1,2,4,2,1
13,3I7DHKZYGO6PDFMPKD6SLR1H9R75FL,AKIDVQHDUIN3L,3WPCIUYH1AESDDLQ40OYBN9QSLSDT1,2,999,30,3531,1,6,0,2,1,5,6
13,3I7DHKZYGO6PDFMPKD6SLR1H9R75FL,AKIDVQHDUIN3L,3WPCIUYH1AESDDLQ40OYBN9QSLSDT1,2,999,31,3709,5,6,1,2,2,5,6
13,3I7DHKZYGO6PDFMPKD6SLR1H9R75FL,AKIDVQHDUIN3L,3WPCIUYH1AESDDLQ40OYBN9QSLSDT1,2,999,32,3470,5,1,2,0,1,3,5
13,3I7DHKZYGO6PDFMPKD6SLR1H9R75FL,AKIDVQHDUIN3L,3WPCIUYH1AESDDLQ40OYBN9QSLSDT1,2,999,33,2791,6,1,2,1,3,1,6
13,3I7DHKZYGO6PDFMPKD6SLR1H9R75FL,AKIDVQHDUIN3L,3WPCIUYH1AESDDLQ40OYBN9QSLSDT1,2,999,34,3951,6,4,1,0,4,6,7
13,3I7DHKZYGO6PDFMPKD6SLR1H9R75FL,AKIDVQHDUIN3L,3WPCIUYH1AESDDLQ40OYBN9QSLSDT1,2,999,35,4383,6,7,0,2,6,3,7
13,3I7DHKZYGO6PDFMPKD6SLR1H9R75FL,AKIDVQHDUIN3L,3WPCIUYH1AESDDLQ40OYBN9QSLSDT1,2,999,36,5057,1,7,2,1,2,7,1
13,3I7DHKZYGO6PDFMPKD6SLR1H9R75FL,AKIDVQHDUIN3L,3WPCIUYH1AESDDLQ40OYBN9QSLSDT1,2,999,37,1687,4,7,1,0,7,4,3
13,3I7DHKZYGO6PDFMPKD6SLR1H9R75FL,AKIDVQHDUIN3L,3WPCIUYH1AESDDLQ40OYBN9QSLSDT1,2,999,38,1466,3,7,0,1,3,7,2
13,3I7DHKZYGO6PDFMPKD6SLR1H9R75FL,AKIDVQHDUIN3L,3WPCIUYH1AESDDLQ40OYBN9QSLSDT1,2,999,39,1744,1,6,2,1,7,6,1
13,3I7DHKZYGO6PDFMPKD6SLR1H9R75FL,AKIDVQHDUIN3L,3WPCIUYH1AESDDLQ40OYBN9QSLSDT1,2,999,40,1729,3,4,1,2,1,3,4
13,3I7DHKZYGO6PDFMPKD6SLR1H9R75FL,AKIDVQHDUIN3L,3WPCIUYH1AESDDLQ40OYBN9QSLSDT1,2,999,41,1306,3,4,0,1,3,4,6
13,3I7DHKZYGO6PDFMPKD6SLR1H9R75FL,AKIDVQHDUIN3L,3WPCIUYH1AESDDLQ40OYBN9QSLSDT1,2,999,42,1727,2,6,2,0,6,4,2
13,3I7DHKZYGO6PDFMPKD6SLR1H9R75FL,AKIDVQHDUIN3L,3WPCIUYH1AESDDLQ40OYBN9QSLSDT1,2,999,43,2113,3,4,0,2,3,2,4
13,3I7DHKZYGO6PDFMPKD6SLR1H9R75FL,AKIDVQHDUIN3L,3WPCIUYH1AESDDLQ40OYBN9QSLSDT1,2,999,44,1576,7,2,2,1,5,2,7
13,3I7DHKZYGO6PDFMPKD6SLR1H9R75FL,AKIDVQHDUIN3L,3WPCIUYH1AESDDLQ40OYBN9QSLSDT1,2,999,45,1627,6,2,0,2,6,7,2
13,3I7DHKZYGO6PDFMPKD6SLR1H9R75FL,AKIDVQHDUIN3L,3WPCIUYH1AESDDLQ40OYBN9QSLSDT1,2,999,46,1398,5,1,2,1,7,1,5
13,3I7DHKZYGO6PDFMPKD6SLR1H9R75FL,AKIDVQHDUIN3L,3WPCIUYH1AESDDLQ40OYBN9QSLSDT1,2,999,47,1936,6,5,2,0,5,4,6
13,3I7DHKZYGO6PDFMPKD6SLR1H9R75FL,AKIDVQHDUIN3L,3WPCIUYH1AESDDLQ40OYBN9QSLSDT1,3,999,48,3296,195,195,true,true,195,195,170
13,3I7DHKZYGO6PDFMPKD6SLR1H9R75FL,AKIDVQHDUIN3L,3WPCIUYH1AESDDLQ40OYBN9QSLSDT1,2,999,49,3414,5,1,2,1,4,1,5
13,3I7DHKZYGO6PDFMPKD6SLR1H9R75FL,AKIDVQHDUIN3L,3WPCIUYH1AESDDLQ40OYBN9QSLSDT1,2,999,50,1982,3,7,0,1,3,7,5
13,3I7DHKZYGO6PDFMPKD6SLR1H9R75FL,AKIDVQHDUIN3L,3WPCIUYH1AESDDLQ40OYBN9QSLSDT1,2,999,51,1918,6,2,0,1,6,2,3
13,3I7DHKZYGO6PDFMPKD6SLR1H9R75FL,AKIDVQHDUIN3L,3WPCIUYH1AESDDLQ40OYBN9QSLSDT1,2,999,52,1925,5,6,2,1,7,6,5
13,3I7DHKZYGO6PDFMPKD6SLR1H9R75FL,AKIDVQHDUIN3L,3WPCIUYH1AESDDLQ40OYBN9QSLSDT1,2,999,53,2859,2,1,2,1,6,1,2
13,3I7DHKZYGO6PDFMPKD6SLR1H9R75FL,AKIDVQHDUIN3L,3WPCIUYH1AESDDLQ40OYBN9QSLSDT1,2,999,98,5753,6,1,0,2,6,4,1
13,3I7DHKZYGO6PDFMPKD6SLR1H9R75FL,AKIDVQHDUIN3L,3WPCIUYH1AESDDLQ40OYBN9QSLSDT1,2,999,99,2808,6,5,1,2,7,6,5
13,3I7DHKZYGO6PDFMPKD6SLR1H9R75FL,AKIDVQHDUIN3L,3WPCIUYH1AESDDLQ40OYBN9QSLSDT1,2,999,100,2043,6,4,1,0,4,6,7
13,3I7DHKZYGO6PDFMPKD6SLR1H9R75FL,AKIDVQHDUIN3L,3WPCIUYH1AESDDLQ40OYBN9QSLSDT1,2,999,101,1826,3,7,0,1,3,7,2
13,3I7DHKZYGO6PDFMPKD6SLR1H9R75FL,AKIDVQHDUIN3L,3WPCIUYH1AESDDLQ40OYBN9QSLSDT1,2,999,102,2570,4,2,0,1,4,2,1
13,3I7DHKZYGO6PDFMPKD6SLR1H9R75FL,AKIDVQHDUIN3L,3WPCIUYH1AESDDLQ40OYBN9QSLSDT1,2,999,103,1341,2,6,1,0,6,2,3
13,3I7DHKZYGO6PDFMPKD6SLR1H9R75FL,AKIDVQHDUIN3L,3WPCIUYH1AESDDLQ40OYBN9QSLSDT1,2,999,104,1617,6,1,1,2,7,6,1
13,3I7DHKZYGO6PDFMPKD6SLR1H9R75FL,AKIDVQHDUIN3L,3WPCIUYH1AESDDLQ40OYBN9QSLSDT1,2,999,105,2043,6,3,2,0,3,4,6
13,3I7DHKZYGO6PDFMPKD6SLR1H9R75FL,AKIDVQHDUIN3L,3WPCIUYH1AESDDLQ40OYBN9QSLSDT1,2,999,106,22376,7,4,2,0,4,1,7
13,3I7DHKZYGO6PDFMPKD6SLR1H9R75FL,AKIDVQHDUIN3L,3WPCIUYH1AESDDLQ40OYBN9QSLSDT1,2,999,107,17977,1,2,2,0,2,5,1
13,3I7DHKZYGO6PDFMPKD6SLR1H9R75FL,AKIDVQHDUIN3L,3WPCIUYH1AESDDLQ40OYBN9QSLSDT1,2,999,108,1665,5,2,0,2,5,3,2
13,3I7DHKZYGO6PDFMPKD6SLR1H9R75FL,AKIDVQHDUIN3L,3WPCIUYH1AESDDLQ40OYBN9QSLSDT1,2,999,109,1011,5,6,0,2,5,4,6
13,3I7DHKZYGO6PDFMPKD6SLR1H9R75FL,AKIDVQHDUIN3L,3WPCIUYH1AESDDLQ40OYBN9QSLSDT1,2,999,110,2946,3,4,2,1,7,4,3
13,3I7DHKZYGO6PDFMPKD6SLR1H9R75FL,AKIDVQHDUIN3L,3WPCIUYH1AESDDLQ40OYBN9QSLSDT1,2,999,111,2890,2,5,1,0,5,2,7
13,3I7DHKZYGO6PDFMPKD6SLR1H9R75FL,AKIDVQHDUIN3L,3WPCIUYH1AESDDLQ40OYBN9QSLSDT1,2,999,112,2380,2,5,2,1,4,5,2
13,3I7DHKZYGO6PDFMPKD6SLR1H9R75FL,AKIDVQHDUIN3L,3WPCIUYH1AESDDLQ40OYBN9QSLSDT1,2,999,113,2046,5,6,1,2,2,5,6
13,3I7DHKZYGO6PDFMPKD6SLR1H9R75FL,AKIDVQHDUIN3L,3WPCIUYH1AESDDLQ40OYBN9QSLSDT1,2,999,114,4299,6,2,0,2,6,7,2
13,3I7DHKZYGO6PDFMPKD6SLR1H9R75FL,AKIDVQHDUIN3L,3WPCIUYH1AESDDLQ40OYBN9QSLSDT1,2,999,115,4320,2,7,0,1,2,7,4
13,3I7DHKZYGO6PDFMPKD6SLR1H9R75FL,AKIDVQHDUIN3L,3WPCIUYH1AESDDLQ40OYBN9QSLSDT1,2,999,116,1716,1,5,1,2,4,1,5
13,3I7DHKZYGO6PDFMPKD6SLR1H9R75FL,AKIDVQHDUIN3L,3WPCIUYH1AESDDLQ40OYBN9QSLSDT1,2,999,117,2297,1,5,1,2,7,1,5
13,3I7DHKZYGO6PDFMPKD6SLR1H9R75FL,AKIDVQHDUIN3L,3WPCIUYH1AESDDLQ40OYBN9QSLSDT1,2,999,118,2540,7,3,2,0,3,1,7
13,3I7DHKZYGO6PDFMPKD6SLR1H9R75FL,AKIDVQHDUIN3L,3WPCIUYH1AESDDLQ40OYBN9QSLSDT1,2,999,119,2487,7,4,1,2,5,7,4
13,3I7DHKZYGO6PDFMPKD6SLR1H9R75FL,AKIDVQHDUIN3L,3WPCIUYH1AESDDLQ40OYBN9QSLSDT1,2,999,120,2281,4,3,2,1,1,3,4
13,3I7DHKZYGO6PDFMPKD6SLR1H9R75FL,AKIDVQHDUIN3L,3WPCIUYH1AESDDLQ40OYBN9QSLSDT1,2,999,121,2056,4,3,1,2,5,4,3
13,3I7DHKZYGO6PDFMPKD6SLR1H9R75FL,AKIDVQHDUIN3L,3WPCIUYH1AESDDLQ40OYBN9QSLSDT1,2,999,122,3314,7,3,2,1,6,3,7
13,3I7DHKZYGO6PDFMPKD6SLR1H9R75FL,AKIDVQHDUIN3L,3WPCIUYH1AESDDLQ40OYBN9QSLSDT1,2,999,123,1856,4,2,1,2,6,4,2
13,3I7DHKZYGO6PDFMPKD6SLR1H9R75FL,AKIDVQHDUIN3L,3WPCIUYH1AESDDLQ40OYBN9QSLSDT1,2,999,124,2169,7,3,1,0,3,7,5
13,3I7DHKZYGO6PDFMPKD6SLR1H9R75FL,AKIDVQHDUIN3L,3WPCIUYH1AESDDLQ40OYBN9QSLSDT1,2,999,125,1784,6,5,1,0,5,6,3
13,3I7DHKZYGO6PDFMPKD6SLR1H9R75FL,AKIDVQHDUIN3L,3WPCIUYH1AESDDLQ40OYBN9QSLSDT1,2,999,126,2162,6,5,2,1,1,5,6
13,3I7DHKZYGO6PDFMPKD6SLR1H9R75FL,AKIDVQHDUIN3L,3WPCIUYH1AESDDLQ40OYBN9QSLSDT1,2,999,127,2076,1,6,1,2,3,1,6
13,3I7DHKZYGO6PDFMPKD6SLR1H9R75FL,AKIDVQHDUIN3L,3WPCIUYH1AESDDLQ40OYBN9QSLSDT1,2,999,128,2123,3,4,0,2,3,2,4
13,3I7DHKZYGO6PDFMPKD6SLR1H9R75FL,AKIDVQHDUIN3L,3WPCIUYH1AESDDLQ40OYBN9QSLSDT1,2,999,129,2100,2,1,2,0,1,3,2
13,3I7DHKZYGO6PDFMPKD6SLR1H9R75FL,AKIDVQHDUIN3L,3WPCIUYH1AESDDLQ40OYBN9QSLSDT1,2,999,130,2209,5,1,2,0,1,3,5
13,3I7DHKZYGO6PDFMPKD6SLR1H9R75FL,AKIDVQHDUIN3L,3WPCIUYH1AESDDLQ40OYBN9QSLSDT1,2,999,131,2243,2,6,2,0,6,1,2
13,3I7DHKZYGO6PDFMPKD6SLR1H9R75FL,AKIDVQHDUIN3L,3WPCIUYH1AESDDLQ40OYBN9QSLSDT1,2,999,132,1514,2,1,0,2,2,7,1
13,3I7DHKZYGO6PDFMPKD6SLR1H9R75FL,AKIDVQHDUIN3L,3WPCIUYH1AESDDLQ40OYBN9QSLSDT1,3,999,133,12555,197,197,true,true,197,197,196
13,3I7DHKZYGO6PDFMPKD6SLR1H9R75FL,AKIDVQHDUIN3L,3WPCIUYH1AESDDLQ40OYBN9QSLSDT1,2,999,179,3807,6,2,0,2,6,4,2
13,3I7DHKZYGO6PDFMPKD6SLR1H9R75FL,AKIDVQHDUIN3L,3WPCIUYH1AESDDLQ40OYBN9QSLSDT1,2,999,180,2344,1,2,0,2,1,3,2
13,3I7DHKZYGO6PDFMPKD6SLR1H9R75FL,AKIDVQHDUIN3L,3WPCIUYH1AESDDLQ40OYBN9QSLSDT1,2,999,181,1581,4,7,0,2,4,6,7
13,3I7DHKZYGO6PDFMPKD6SLR1H9R75FL,AKIDVQHDUIN3L,3WPCIUYH1AESDDLQ40OYBN9QSLSDT1,2,999,182,2387,6,5,1,2,7,6,5
13,3I7DHKZYGO6PDFMPKD6SLR1H9R75FL,AKIDVQHDUIN3L,3WPCIUYH1AESDDLQ40OYBN9QSLSDT1,2,999,183,3129,3,7,0,1,3,7,2
13,3I7DHKZYGO6PDFMPKD6SLR1H9R75FL,AKIDVQHDUIN3L,3WPCIUYH1AESDDLQ40OYBN9QSLSDT1,2,999,184,3545,3,7,2,0,7,4,3
13,3I7DHKZYGO6PDFMPKD6SLR1H9R75FL,AKIDVQHDUIN3L,3WPCIUYH1AESDDLQ40OYBN9QSLSDT1,2,999,185,2015,6,1,0,1,6,1,2
13,3I7DHKZYGO6PDFMPKD6SLR1H9R75FL,AKIDVQHDUIN3L,3WPCIUYH1AESDDLQ40OYBN9QSLSDT1,2,999,186,1964,6,5,1,0,5,6,3
13,3I7DHKZYGO6PDFMPKD6SLR1H9R75FL,AKIDVQHDUIN3L,3WPCIUYH1AESDDLQ40OYBN9QSLSDT1,2,999,187,2324,2,5,1,0,5,2,7
13,3I7DHKZYGO6PDFMPKD6SLR1H9R75FL,AKIDVQHDUIN3L,3WPCIUYH1AESDDLQ40OYBN9QSLSDT1,3,999,188,2653,183,183,true,true,183,183,195
13,3I7DHKZYGO6PDFMPKD6SLR1H9R75FL,AKIDVQHDUIN3L,3WPCIUYH1AESDDLQ40OYBN9QSLSDT1,2,999,189,3351,6,1,1,2,7,6,1
13,3I7DHKZYGO6PDFMPKD6SLR1H9R75FL,AKIDVQHDUIN3L,3WPCIUYH1AESDDLQ40OYBN9QSLSDT1,2,999,190,1827,6,1,0,2,6,4,1
13,3I7DHKZYGO6PDFMPKD6SLR1H9R75FL,AKIDVQHDUIN3L,3WPCIUYH1AESDDLQ40OYBN9QSLSDT1,2,999,191,1920,4,3,1,2,5,4,3
13,3I7DHKZYGO6PDFMPKD6SLR1H9R75FL,AKIDVQHDUIN3L,3WPCIUYH1AESDDLQ40OYBN9QSLSDT1,2,999,192,2050,7,4,1,2,5,7,4
13,3I7DHKZYGO6PDFMPKD6SLR1H9R75FL,AKIDVQHDUIN3L,3WPCIUYH1AESDDLQ40OYBN9QSLSDT1,2,999,193,2303,3,2,1,2,5,3,2
13,3I7DHKZYGO6PDFMPKD6SLR1H9R75FL,AKIDVQHDUIN3L,3WPCIUYH1AESDDLQ40OYBN9QSLSDT1,2,999,194,1648,5,1,1,0,1,5,6
13,3I7DHKZYGO6PDFMPKD6SLR1H9R75FL,AKIDVQHDUIN3L,3WPCIUYH1AESDDLQ40OYBN9QSLSDT1,2,999,195,1626,4,7,0,2,4,1,7
13,3I7DHKZYGO6PDFMPKD6SLR1H9R75FL,AKIDVQHDUIN3L,3WPCIUYH1AESDDLQ40OYBN9QSLSDT1,2,999,196,1952,6,1,2,1,3,1,6
13,3I7DHKZYGO6PDFMPKD6SLR1H9R75FL,AKIDVQHDUIN3L,3WPCIUYH1AESDDLQ40OYBN9QSLSDT1,2,999,197,1838,7,3,1,0,3,7,5
13,3I7DHKZYGO6PDFMPKD6SLR1H9R75FL,AKIDVQHDUIN3L,3WPCIUYH1AESDDLQ40OYBN9QSLSDT1,2,999,198,1931,3,4,1,2,1,3,4
13,3I7DHKZYGO6PDFMPKD6SLR1H9R75FL,AKIDVQHDUIN3L,3WPCIUYH1AESDDLQ40OYBN9QSLSDT1,2,999,199,1710,3,7,0,2,3,1,7
13,3I7DHKZYGO6PDFMPKD6SLR1H9R75FL,AKIDVQHDUIN3L,3WPCIUYH1AESDDLQ40OYBN9QSLSDT1,2,999,200,2030,3,4,0,1,3,4,6
13,3I7DHKZYGO6PDFMPKD6SLR1H9R75FL,AKIDVQHDUIN3L,3WPCIUYH1AESDDLQ40OYBN9QSLSDT1,2,999,201,4026,1,5,1,2,7,1,5
13,3I7DHKZYGO6PDFMPKD6SLR1H9R75FL,AKIDVQHDUIN3L,3WPCIUYH1AESDDLQ40OYBN9QSLSDT1,2,999,202,3004,7,4,1,2,2,7,4
13,3I7DHKZYGO6PDFMPKD6SLR1H9R75FL,AKIDVQHDUIN3L,3WPCIUYH1AESDDLQ40OYBN9QSLSDT1,2,999,203,2521,2,1,0,2,2,7,1
13,3I7DHKZYGO6PDFMPKD6SLR1H9R75FL,AKIDVQHDUIN3L,3WPCIUYH1AESDDLQ40OYBN9QSLSDT1,2,999,204,2437,2,5,2,1,4,5,2
13,3I7DHKZYGO6PDFMPKD6SLR1H9R75FL,AKIDVQHDUIN3L,3WPCIUYH1AESDDLQ40OYBN9QSLSDT1,2,999,205,3012,5,6,1,2,2,5,6
13,3I7DHKZYGO6PDFMPKD6SLR1H9R75FL,AKIDVQHDUIN3L,3WPCIUYH1AESDDLQ40OYBN9QSLSDT1,2,999,206,3875,5,1,1,2,2,5,1
13,3I7DHKZYGO6PDFMPKD6SLR1H9R75FL,AKIDVQHDUIN3L,3WPCIUYH1AESDDLQ40OYBN9QSLSDT1,2,999,207,2375,1,5,0,2,1,3,5
13,3I7DHKZYGO6PDFMPKD6SLR1H9R75FL,AKIDVQHDUIN3L,3WPCIUYH1AESDDLQ40OYBN9QSLSDT1,2,999,208,2883,6,2,0,2,6,7,2
13,3I7DHKZYGO6PDFMPKD6SLR1H9R75FL,AKIDVQHDUIN3L,3WPCIUYH1AESDDLQ40OYBN9QSLSDT1,2,999,209,2369,3,7,1,2,6,3,7
13,3I7DHKZYGO6PDFMPKD6SLR1H9R75FL,AKIDVQHDUIN3L,3WPCIUYH1AESDDLQ40OYBN9QSLSDT1,2,999,210,4739,2,6,1,0,6,2,3
13,3I7DHKZYGO6PDFMPKD6SLR1H9R75FL,AKIDVQHDUIN3L,3WPCIUYH1AESDDLQ40OYBN9QSLSDT1,2,999,211,3592,6,5,2,0,5,4,6
13,3I7DHKZYGO6PDFMPKD6SLR1H9R75FL,AKIDVQHDUIN3L,3WPCIUYH1AESDDLQ40OYBN9QSLSDT1,2,999,212,3205,2,1,1,2,4,2,1
13,3I7DHKZYGO6PDFMPKD6SLR1H9R75FL,AKIDVQHDUIN3L,3WPCIUYH1AESDDLQ40OYBN9QSLSDT1,2,999,213,1918,1,5,1,2,4,1,5
13,3I7DHKZYGO6PDFMPKD6SLR1H9R75FL,AKIDVQHDUIN3L,3WPCIUYH1AESDDLQ40OYBN9QSLSDT1,2,999,214,1630,4,3,2,0,3,2,4
13,3I7DHKZYGO6PDFMPKD6SLR1H9R75FL,AKIDVQHDUIN3L,3WPCIUYH1AESDDLQ40OYBN9QSLSDT1,2,999,215,5350,3,7,1,2,6,3,7
13,3I7DHKZYGO6PDFMPKD6SLR1H9R75FL,AKIDVQHDUIN3L,3WPCIUYH1AESDDLQ40OYBN9QSLSDT1,2,999,216,2325,6,5,2,0,5,4,6
13,3I7DHKZYGO6PDFMPKD6SLR1H9R75FL,AKIDVQHDUIN3L,3WPCIUYH1AESDDLQ40OYBN9QSLSDT1,2,999,217,1966,3,7,0,1,3,7,2
13,3I7DHKZYGO6PDFMPKD6SLR1H9R75FL,AKIDVQHDUIN3L,3WPCIUYH1AESDDLQ40OYBN9QSLSDT1,2,999,218,1824,1,6,1,2,3,1,6
13,3I7DHKZYGO6PDFMPKD6SLR1H9R75FL,AKIDVQHDUIN3L,3WPCIUYH1AESDDLQ40OYBN9QSLSDT1,2,999,219,1512,3,4,0,2,3,2,4
13,3I7DHKZYGO6PDFMPKD6SLR1H9R75FL,AKIDVQHDUIN3L,3WPCIUYH1AESDDLQ40OYBN9QSLSDT1,2,999,220,1549,5,1,2,1,7,1,5
13,3I7DHKZYGO6PDFMPKD6SLR1H9R75FL,AKIDVQHDUIN3L,3WPCIUYH1AESDDLQ40OYBN9QSLSDT1,2,999,221,1965,6,5,1,0,5,6,3
13,3I7DHKZYGO6PDFMPKD6SLR1H9R75FL,AKIDVQHDUIN3L,3WPCIUYH1AESDDLQ40OYBN9QSLSDT1,2,999,222,2801,6,1,0,1,6,1,2
13,3I7DHKZYGO6PDFMPKD6SLR1H9R75FL,AKIDVQHDUIN3L,3WPCIUYH1AESDDLQ40OYBN9QSLSDT1,2,999,223,2463,4,6,1,0,6,4,2
13,3I7DHKZYGO6PDFMPKD6SLR1H9R75FL,AKIDVQHDUIN3L,3WPCIUYH1AESDDLQ40OYBN9QSLSDT1,3,999,224,2153,195,195,true,true,195,195,186
13,3I7DHKZYGO6PDFMPKD6SLR1H9R75FL,AKIDVQHDUIN3L,3WPCIUYH1AESDDLQ40OYBN9QSLSDT1,2,999,225,3109,3,4,0,1,3,4,6
13,3I7DHKZYGO6PDFMPKD6SLR1H9R75FL,AKIDVQHDUIN3L,3WPCIUYH1AESDDLQ40OYBN9QSLSDT1,2,999,226,1555,7,3,1,0,3,7,5
13,3I7DHKZYGO6PDFMPKD6SLR1H9R75FL,AKIDVQHDUIN3L,3WPCIUYH1AESDDLQ40OYBN9QSLSDT1,2,999,227,1799,5,6,1,2,2,5,6
13,3I7DHKZYGO6PDFMPKD6SLR1H9R75FL,AKIDVQHDUIN3L,3WPCIUYH1AESDDLQ40OYBN9QSLSDT1,2,999,228,2805,6,1,1,2,7,6,1
13,3I7DHKZYGO6PDFMPKD6SLR1H9R75FL,AKIDVQHDUIN3L,3WPCIUYH1AESDDLQ40OYBN9QSLSDT1,2,999,229,2508,3,4,2,1,5,4,3
13,3I7DHKZYGO6PDFMPKD6SLR1H9R75FL,AKIDVQHDUIN3L,3WPCIUYH1AESDDLQ40OYBN9QSLSDT1,2,999,230,2077,2,5,2,1,4,5,2
13,3I7DHKZYGO6PDFMPKD6SLR1H9R75FL,AKIDVQHDUIN3L,3WPCIUYH1AESDDLQ40OYBN9QSLSDT1,2,999,231,1759,2,6,1,0,6,2,3
13,3I7DHKZYGO6PDFMPKD6SLR1H9R75FL,AKIDVQHDUIN3L,3WPCIUYH1AESDDLQ40OYBN9QSLSDT1,2,999,232,2418,4,7,2,1,2,7,4
13,3I7DHKZYGO6PDFMPKD6SLR1H9R75FL,AKIDVQHDUIN3L,3WPCIUYH1AESDDLQ40OYBN9QSLSDT1,2,999,233,1619,3,4,1,2,1,3,4
13,3I7DHKZYGO6PDFMPKD6SLR1H9R75FL,AKIDVQHDUIN3L,3WPCIUYH1AESDDLQ40OYBN9QSLSDT1,2,999,234,1892,2,1,1,2,4,2,1
13,3I7DHKZYGO6PDFMPKD6SLR1H9R75FL,AKIDVQHDUIN3L,3WPCIUYH1AESDDLQ40OYBN9QSLSDT1,2,999,235,2127,1,5,1,2,4,1,5
13,3I7DHKZYGO6PDFMPKD6SLR1H9R75FL,AKIDVQHDUIN3L,3WPCIUYH1AESDDLQ40OYBN9QSLSDT1,2,999,236,2091,1,2,0,2,1,3,2
13,3I7DHKZYGO6PDFMPKD6SLR1H9R75FL,AKIDVQHDUIN3L,3WPCIUYH1AESDDLQ40OYBN9QSLSDT1,2,999,237,3158,5,1,1,2,2,5,1
13,3I7DHKZYGO6PDFMPKD6SLR1H9R75FL,AKIDVQHDUIN3L,3WPCIUYH1AESDDLQ40OYBN9QSLSDT1,2,999,238,2510,5,6,1,2,1,5,6
13,3I7DHKZYGO6PDFMPKD6SLR1H9R75FL,AKIDVQHDUIN3L,3WPCIUYH1AESDDLQ40OYBN9QSLSDT1,2,999,239,2010,6,5,1,2,7,6,5
13,3I7DHKZYGO6PDFMPKD6SLR1H9R75FL,AKIDVQHDUIN3L,3WPCIUYH1AESDDLQ40OYBN9QSLSDT1,2,999,240,4395,4,7,0,2,4,6,7
13,3I7DHKZYGO6PDFMPKD6SLR1H9R75FL,AKIDVQHDUIN3L,3WPCIUYH1AESDDLQ40OYBN9QSLSDT1,2,999,241,3276,3,5,1,0,5,3,2
13,3I7DHKZYGO6PDFMPKD6SLR1H9R75FL,AKIDVQHDUIN3L,3WPCIUYH1AESDDLQ40OYBN9QSLSDT1,2,999,242,1651,7,4,0,1,7,4,3
13,3I7DHKZYGO6PDFMPKD6SLR1H9R75FL,AKIDVQHDUIN3L,3WPCIUYH1AESDDLQ40OYBN9QSLSDT1,2,999,243,1799,4,7,0,2,4,1,7
13,3I7DHKZYGO6PDFMPKD6SLR1H9R75FL,AKIDVQHDUIN3L,3WPCIUYH1AESDDLQ40OYBN9QSLSDT1,2,999,244,2736,5,1,2,0,1,3,5
13,3I7DHKZYGO6PDFMPKD6SLR1H9R75FL,AKIDVQHDUIN3L,3WPCIUYH1AESDDLQ40OYBN9QSLSDT1,2,999,245,1786,6,1,0,2,6,4,1
13,3I7DHKZYGO6PDFMPKD6SLR1H9R75FL,AKIDVQHDUIN3L,3WPCIUYH1AESDDLQ40OYBN9QSLSDT1,2,999,246,2371,2,1,0,2,2,7,1
13,3I7DHKZYGO6PDFMPKD6SLR1H9R75FL,AKIDVQHDUIN3L,3WPCIUYH1AESDDLQ40OYBN9QSLSDT1,2,999,247,2166,7,2,2,1,5,2,7
13,3I7DHKZYGO6PDFMPKD6SLR1H9R75FL,AKIDVQHDUIN3L,3WPCIUYH1AESDDLQ40OYBN9QSLSDT1,2,999,248,2109,3,7,0,2,3,1,7
13,3I7DHKZYGO6PDFMPKD6SLR1H9R75FL,AKIDVQHDUIN3L,3WPCIUYH1AESDDLQ40OYBN9QSLSDT1,2,999,249,1935,6,2,0,2,6,7,2
13,3I7DHKZYGO6PDFMPKD6SLR1H9R75FL,AKIDVQHDUIN3L,3WPCIUYH1AESDDLQ40OYBN9QSLSDT1,2,999,250,2292,7,4,1,2,5,7,4
14,3PM8NZGV8ZMV6NW84Z0HP9WF9SPXQG,A1A3TGZ7DKJWRW,3WPCIUYH1AESDDLQ40OYBN9QSLSDT1,1,1,7,3821,18,19,0,1,18,19,16
14,3PM8NZGV8ZMV6NW84Z0HP9WF9SPXQG,A1A3TGZ7DKJWRW,3WPCIUYH1AESDDLQ40OYBN9QSLSDT1,1,1,15,4832,18,17,0,2,18,10,17
14,3PM8NZGV8ZMV6NW84Z0HP9WF9SPXQG,A1A3TGZ7DKJWRW,3WPCIUYH1AESDDLQ40OYBN9QSLSDT1,1,1,16,2265,12,20,1,2,16,12,20
14,3PM8NZGV8ZMV6NW84Z0HP9WF9SPXQG,A1A3TGZ7DKJWRW,3WPCIUYH1AESDDLQ40OYBN9QSLSDT1,2,999,18,2254,3,7,0,1,3,7,5
14,3PM8NZGV8ZMV6NW84Z0HP9WF9SPXQG,A1A3TGZ7DKJWRW,3WPCIUYH1AESDDLQ40OYBN9QSLSDT1,2,999,19,3256,3,1,1,0,1,3,2
14,3PM8NZGV8ZMV6NW84Z0HP9WF9SPXQG,A1A3TGZ7DKJWRW,3WPCIUYH1AESDDLQ40OYBN9QSLSDT1,2,999,20,3766,7,4,1,2,2,7,4
14,3PM8NZGV8ZMV6NW84Z0HP9WF9SPXQG,A1A3TGZ7DKJWRW,3WPCIUYH1AESDDLQ40OYBN9QSLSDT1,2,999,21,2417,6,2,0,2,6,4,2
14,3PM8NZGV8ZMV6NW84Z0HP9WF9SPXQG,A1A3TGZ7DKJWRW,3WPCIUYH1AESDDLQ40OYBN9QSLSDT1,2,999,22,1958,4,3,1,2,5,4,3
14,3PM8NZGV8ZMV6NW84Z0HP9WF9SPXQG,A1A3TGZ7DKJWRW,3WPCIUYH1AESDDLQ40OYBN9QSLSDT1,2,999,23,1529,1,5,0,1,1,5,6
14,3PM8NZGV8ZMV6NW84Z0HP9WF9SPXQG,A1A3TGZ7DKJWRW,3WPCIUYH1AESDDLQ40OYBN9QSLSDT1,2,999,24,2675,6,2,0,1,6,2,3
14,3PM8NZGV8ZMV6NW84Z0HP9WF9SPXQG,A1A3TGZ7DKJWRW,3WPCIUYH1AESDDLQ40OYBN9QSLSDT1,2,999,25,1760,2,5,0,1,2,5,6
14,3PM8NZGV8ZMV6NW84Z0HP9WF9SPXQG,A1A3TGZ7DKJWRW,3WPCIUYH1AESDDLQ40OYBN9QSLSDT1,2,999,26,1925,5,2,1,2,4,5,2
14,3PM8NZGV8ZMV6NW84Z0HP9WF9SPXQG,A1A3TGZ7DKJWRW,3WPCIUYH1AESDDLQ40OYBN9QSLSDT1,2,999,27,2030,6,2,0,2,6,7,2
14,3PM8NZGV8ZMV6NW84Z0HP9WF9SPXQG,A1A3TGZ7DKJWRW,3WPCIUYH1AESDDLQ40OYBN9QSLSDT1,2,999,28,1583,4,7,0,2,4,6,7
14,3PM8NZGV8ZMV6NW84Z0HP9WF9SPXQG,A1A3TGZ7DKJWRW,3WPCIUYH1AESDDLQ40OYBN9QSLSDT1,2,999,29,2669,2,4,1,0,4,2,1
14,3PM8NZGV8ZMV6NW84Z0HP9WF9SPXQG,A1A3TGZ7DKJWRW,3WPCIUYH1AESDDLQ40OYBN9QSLSDT1,2,999,30,2105,3,4,0,2,3,2,4
14,3PM8NZGV8ZMV6NW84Z0HP9WF9SPXQG,A1A3TGZ7DKJWRW,3WPCIUYH1AESDDLQ40OYBN9QSLSDT1,2,999,31,1953,5,1,1,2,2,5,1
14,3PM8NZGV8ZMV6NW84Z0HP9WF9SPXQG,A1A3TGZ7DKJWRW,3WPCIUYH1AESDDLQ40OYBN9QSLSDT1,2,999,32,1704,7,4,1,2,5,7,4
14,3PM8NZGV8ZMV6NW84Z0HP9WF9SPXQG,A1A3TGZ7DKJWRW,3WPCIUYH1AESDDLQ40OYBN9QSLSDT1,2,999,33,2648,3,2,1,2,5,3,2
14,3PM8NZGV8ZMV6NW84Z0HP9WF9SPXQG,A1A3TGZ7DKJWRW,3WPCIUYH1AESDDLQ40OYBN9QSLSDT1,2,999,34,2522,6,5,1,2,7,6,5
14,3PM8NZGV8ZMV6NW84Z0HP9WF9SPXQG,A1A3TGZ7DKJWRW,3WPCIUYH1AESDDLQ40OYBN9QSLSDT1,2,999,35,2331,3,5,1,2,1,3,5
14,3PM8NZGV8ZMV6NW84Z0HP9WF9SPXQG,A1A3TGZ7DKJWRW,3WPCIUYH1AESDDLQ40OYBN9QSLSDT1,2,999,36,2397,7,1,1,2,2,7,1
14,3PM8NZGV8ZMV6NW84Z0HP9WF9SPXQG,A1A3TGZ7DKJWRW,3WPCIUYH1AESDDLQ40OYBN9QSLSDT1,2,999,37,2445,3,7,0,2,3,1,7
14,3PM8NZGV8ZMV6NW84Z0HP9WF9SPXQG,A1A3TGZ7DKJWRW,3WPCIUYH1AESDDLQ40OYBN9QSLSDT1,2,999,38,1736,4,3,1,0,3,4,6
14,3PM8NZGV8ZMV6NW84Z0HP9WF9SPXQG,A1A3TGZ7DKJWRW,3WPCIUYH1AESDDLQ40OYBN9QSLSDT1,2,999,39,1645,4,6,1,2,5,4,6
14,3PM8NZGV8ZMV6NW84Z0HP9WF9SPXQG,A1A3TGZ7DKJWRW,3WPCIUYH1AESDDLQ40OYBN9QSLSDT1,2,999,40,2655,2,1,2,1,6,1,2
14,3PM8NZGV8ZMV6NW84Z0HP9WF9SPXQG,A1A3TGZ7DKJWRW,3WPCIUYH1AESDDLQ40OYBN9QSLSDT1,2,999,41,3851,4,7,1,0,7,4,3
14,3PM8NZGV8ZMV6NW84Z0HP9WF9SPXQG,A1A3TGZ7DKJWRW,3WPCIUYH1AESDDLQ40OYBN9QSLSDT1,3,999,42,1518,185,185,true,true,185,185,186
14,3PM8NZGV8ZMV6NW84Z0HP9WF9SPXQG,A1A3TGZ7DKJWRW,3WPCIUYH1AESDDLQ40OYBN9QSLSDT1,2,999,43,1836,6,5,1,0,5,6,3
14,3PM8NZGV8ZMV6NW84Z0HP9WF9SPXQG,A1A3TGZ7DKJWRW,3WPCIUYH1AESDDLQ40OYBN9QSLSDT1,2,999,44,1352,1,4,1,0,4,1,5
14,3PM8NZGV8ZMV6NW84Z0HP9WF9SPXQG,A1A3TGZ7DKJWRW,3WPCIUYH1AESDDLQ40OYBN9QSLSDT1,2,999,45,2126,3,7,1,2,6,3,7
14,3PM8NZGV8ZMV6NW84Z0HP9WF9SPXQG,A1A3TGZ7DKJWRW,3WPCIUYH1AESDDLQ40OYBN9QSLSDT1,2,999,46,2041,3,4,1,2,1,3,4
14,3PM8NZGV8ZMV6NW84Z0HP9WF9SPXQG,A1A3TGZ7DKJWRW,3WPCIUYH1AESDDLQ40OYBN9QSLSDT1,2,999,47,1979,4,1,1,2,6,4,1
14,3PM8NZGV8ZMV6NW84Z0HP9WF9SPXQG,A1A3TGZ7DKJWRW,3WPCIUYH1AESDDLQ40OYBN9QSLSDT1,2,999,48,1388,2,5,1,0,5,2,7
14,3PM8NZGV8ZMV6NW84Z0HP9WF9SPXQG,A1A3TGZ7DKJWRW,3WPCIUYH1AESDDLQ40OYBN9QSLSDT1,2,999,49,2076,1,6,1,2,3,1,6
14,3PM8NZGV8ZMV6NW84Z0HP9WF9SPXQG,A1A3TGZ7DKJWRW,3WPCIUYH1AESDDLQ40OYBN9QSLSDT1,2,999,50,1848,1,5,1,2,7,1,5
14,3PM8NZGV8ZMV6NW84Z0HP9WF9SPXQG,A1A3TGZ7DKJWRW,3WPCIUYH1AESDDLQ40OYBN9QSLSDT1,2,999,51,1349,3,7,0,1,3,7,2
14,3PM8NZGV8ZMV6NW84Z0HP9WF9SPXQG,A1A3TGZ7DKJWRW,3WPCIUYH1AESDDLQ40OYBN9QSLSDT1,2,999,52,2011,4,7,0,2,4,1,7
14,3PM8NZGV8ZMV6NW84Z0HP9WF9SPXQG,A1A3TGZ7DKJWRW,3WPCIUYH1AESDDLQ40OYBN9QSLSDT1,2,999,53,1587,6,1,1,2,7,6,1
14,3PM8NZGV8ZMV6NW84Z0HP9WF9SPXQG,A1A3TGZ7DKJWRW,3WPCIUYH1AESDDLQ40OYBN9QSLSDT1,2,999,98,2540,3,4,1,2,1,3,4
14,3PM8NZGV8ZMV6NW84Z0HP9WF9SPXQG,A1A3TGZ7DKJWRW,3WPCIUYH1AESDDLQ40OYBN9QSLSDT1,2,999,99,1453,4,2,1,2,6,4,2
14,3PM8NZGV8ZMV6NW84Z0HP9WF9SPXQG,A1A3TGZ7DKJWRW,3WPCIUYH1AESDDLQ40OYBN9QSLSDT1,2,999,100,5703,5,1,2,1,7,1,5
14,3PM8NZGV8ZMV6NW84Z0HP9WF9SPXQG,A1A3TGZ7DKJWRW,3WPCIUYH1AESDDLQ40OYBN9QSLSDT1,2,999,101,1404,3,5,1,0,5,3,2
14,3PM8NZGV8ZMV6NW84Z0HP9WF9SPXQG,A1A3TGZ7DKJWRW,3WPCIUYH1AESDDLQ40OYBN9QSLSDT1,2,999,102,1051,3,7,0,1,3,7,2
14,3PM8NZGV8ZMV6NW84Z0HP9WF9SPXQG,A1A3TGZ7DKJWRW,3WPCIUYH1AESDDLQ40OYBN9QSLSDT1,3,999,103,2893,189,189,true,true,189,189,174
14,3PM8NZGV8ZMV6NW84Z0HP9WF9SPXQG,A1A3TGZ7DKJWRW,3WPCIUYH1AESDDLQ40OYBN9QSLSDT1,2,999,104,1843,2,1,0,2,2,7,1
14,3PM8NZGV8ZMV6NW84Z0HP9WF9SPXQG,A1A3TGZ7DKJWRW,3WPCIUYH1AESDDLQ40OYBN9QSLSDT1,2,999,105,1018,6,1,0,2,6,4,1
14,3PM8NZGV8ZMV6NW84Z0HP9WF9SPXQG,A1A3TGZ7DKJWRW,3WPCIUYH1AESDDLQ40OYBN9QSLSDT1,2,999,106,1373,6,1,1,2,7,6,1
14,3PM8NZGV8ZMV6NW84Z0HP9WF9SPXQG,A1A3TGZ7DKJWRW,3WPCIUYH1AESDDLQ40OYBN9QSLSDT1,2,999,107,1663,1,2,0,2,1,3,2
14,3PM8NZGV8ZMV6NW84Z0HP9WF9SPXQG,A1A3TGZ7DKJWRW,3WPCIUYH1AESDDLQ40OYBN9QSLSDT1,2,999,108,1163,5,2,0,1,5,2,7
14,3PM8NZGV8ZMV6NW84Z0HP9WF9SPXQG,A1A3TGZ7DKJWRW,3WPCIUYH1AESDDLQ40OYBN9QSLSDT1,2,999,109,1196,2,5,0,1,2,5,6
14,3PM8NZGV8ZMV6NW84Z0HP9WF9SPXQG,A1A3TGZ7DKJWRW,3WPCIUYH1AESDDLQ40OYBN9QSLSDT1,2,999,110,2057,6,5,2,1,1,5,6
14,3PM8NZGV8ZMV6NW84Z0HP9WF9SPXQG,A1A3TGZ7DKJWRW,3WPCIUYH1AESDDLQ40OYBN9QSLSDT1,2,999,111,1523,6,5,1,0,5,6,3
14,3PM8NZGV8ZMV6NW84Z0HP9WF9SPXQG,A1A3TGZ7DKJWRW,3WPCIUYH1AESDDLQ40OYBN9QSLSDT1,2,999,112,2366,3,7,1,2,6,3,7
14,3PM8NZGV8ZMV6NW84Z0HP9WF9SPXQG,A1A3TGZ7DKJWRW,3WPCIUYH1AESDDLQ40OYBN9QSLSDT1,2,999,113,1293,7,4,1,2,2,7,4
14,3PM8NZGV8ZMV6NW84Z0HP9WF9SPXQG,A1A3TGZ7DKJWRW,3WPCIUYH1AESDDLQ40OYBN9QSLSDT1,2,999,114,2936,4,3,2,0,3,2,4
14,3PM8NZGV8ZMV6NW84Z0HP9WF9SPXQG,A1A3TGZ7DKJWRW,3WPCIUYH1AESDDLQ40OYBN9QSLSDT1,2,999,115,1266,3,7,0,1,3,7,5
14,3PM8NZGV8ZMV6NW84Z0HP9WF9SPXQG,A1A3TGZ7DKJWRW,3WPCIUYH1AESDDLQ40OYBN9QSLSDT1,2,999,116,2146,6,2,0,2,6,1,2
14,3PM8NZGV8ZMV6NW84Z0HP9WF9SPXQG,A1A3TGZ7DKJWRW,3WPCIUYH1AESDDLQ40OYBN9QSLSDT1,2,999,117,1954,2,1,0,2,2,5,1
14,3PM8NZGV8ZMV6NW84Z0HP9WF9SPXQG,A1A3TGZ7DKJWRW,3WPCIUYH1AESDDLQ40OYBN9QSLSDT1,2,999,118,1750,4,6,1,2,5,4,6
14,3PM8NZGV8ZMV6NW84Z0HP9WF9SPXQG,A1A3TGZ7DKJWRW,3WPCIUYH1AESDDLQ40OYBN9QSLSDT1,2,999,119,1024,4,7,0,2,4,1,7
14,3PM8NZGV8ZMV6NW84Z0HP9WF9SPXQG,A1A3TGZ7DKJWRW,3WPCIUYH1AESDDLQ40OYBN9QSLSDT1,2,999,120,1269,4,7,0,2,4,6,7
14,3PM8NZGV8ZMV6NW84Z0HP9WF9SPXQG,A1A3TGZ7DKJWRW,3WPCIUYH1AESDDLQ40OYBN9QSLSDT1,2,999,121,1449,5,4,0,2,5,7,4
14,3PM8NZGV8ZMV6NW84Z0HP9WF9SPXQG,A1A3TGZ7DKJWRW,3WPCIUYH1AESDDLQ40OYBN9QSLSDT1,2,999,122,1147,3,7,0,2,3,1,7
14,3PM8NZGV8ZMV6NW84Z0HP9WF9SPXQG,A1A3TGZ7DKJWRW,3WPCIUYH1AESDDLQ40OYBN9QSLSDT1,2,999,123,1554,6,5,1,2,7,6,5
14,3PM8NZGV8ZMV6NW84Z0HP9WF9SPXQG,A1A3TGZ7DKJWRW,3WPCIUYH1AESDDLQ40OYBN9QSLSDT1,2,999,124,1668,1,5,1,2,4,1,5
14,3PM8NZGV8ZMV6NW84Z0HP9WF9SPXQG,A1A3TGZ7DKJWRW,3WPCIUYH1AESDDLQ40OYBN9QSLSDT1,2,999,125,1401,2,1,1,2,4,2,1
14,3PM8NZGV8ZMV6NW84Z0HP9WF9SPXQG,A1A3TGZ7DKJWRW,3WPCIUYH1AESDDLQ40OYBN9QSLSDT1,2,999,126,1620,3,1,1,0,1,3,5
14,3PM8NZGV8ZMV6NW84Z0HP9WF9SPXQG,A1A3TGZ7DKJWRW,3WPCIUYH1AESDDLQ40OYBN9QSLSDT1,2,999,127,943,3,4,0,1,3,4,6
14,3PM8NZGV8ZMV6NW84Z0HP9WF9SPXQG,A1A3TGZ7DKJWRW,3WPCIUYH1AESDDLQ40OYBN9QSLSDT1,2,999,128,1181,2,6,1,0,6,2,3
14,3PM8NZGV8ZMV6NW84Z0HP9WF9SPXQG,A1A3TGZ7DKJWRW,3WPCIUYH1AESDDLQ40OYBN9QSLSDT1,2,999,129,1267,4,2,0,2,4,5,2
14,3PM8NZGV8ZMV6NW84Z0HP9WF9SPXQG,A1A3TGZ7DKJWRW,3WPCIUYH1AESDDLQ40OYBN9QSLSDT1,2,999,130,1053,7,4,0,1,7,4,3
14,3PM8NZGV8ZMV6NW84Z0HP9WF9SPXQG,A1A3TGZ7DKJWRW,3WPCIUYH1AESDDLQ40OYBN9QSLSDT1,2,999,131,1413,4,3,1,2,5,4,3
14,3PM8NZGV8ZMV6NW84Z0HP9WF9SPXQG,A1A3TGZ7DKJWRW,3WPCIUYH1AESDDLQ40OYBN9QSLSDT1,2,999,132,1954,1,6,1,2,3,1,6
14,3PM8NZGV8ZMV6NW84Z0HP9WF9SPXQG,A1A3TGZ7DKJWRW,3WPCIUYH1AESDDLQ40OYBN9QSLSDT1,2,999,133,1562,2,6,2,0,6,7,2
14,3PM8NZGV8ZMV6NW84Z0HP9WF9SPXQG,A1A3TGZ7DKJWRW,3WPCIUYH1AESDDLQ40OYBN9QSLSDT1,2,999,179,2172,2,5,1,0,5,2,7
14,3PM8NZGV8ZMV6NW84Z0HP9WF9SPXQG,A1A3TGZ7DKJWRW,3WPCIUYH1AESDDLQ40OYBN9QSLSDT1,2,999,180,2745,1,2,0,2,1,3,2
14,3PM8NZGV8ZMV6NW84Z0HP9WF9SPXQG,A1A3TGZ7DKJWRW,3WPCIUYH1AESDDLQ40OYBN9QSLSDT1,2,999,181,1034,3,4,0,2,3,2,4
14,3PM8NZGV8ZMV6NW84Z0HP9WF9SPXQG,A1A3TGZ7DKJWRW,3WPCIUYH1AESDDLQ40OYBN9QSLSDT1,2,999,182,1264,6,1,0,2,6,4,1
14,3PM8NZGV8ZMV6NW84Z0HP9WF9SPXQG,A1A3TGZ7DKJWRW,3WPCIUYH1AESDDLQ40OYBN9QSLSDT1,2,999,183,1288,6,2,0,2,6,7,2
14,3PM8NZGV8ZMV6NW84Z0HP9WF9SPXQG,A1A3TGZ7DKJWRW,3WPCIUYH1AESDDLQ40OYBN9QSLSDT1,2,999,184,1532,6,5,1,2,7,6,5
14,3PM8NZGV8ZMV6NW84Z0HP9WF9SPXQG,A1A3TGZ7DKJWRW,3WPCIUYH1AESDDLQ40OYBN9QSLSDT1,2,999,185,1400,7,4,1,2,2,7,4
14,3PM8NZGV8ZMV6NW84Z0HP9WF9SPXQG,A1A3TGZ7DKJWRW,3WPCIUYH1AESDDLQ40OYBN9QSLSDT1,2,999,186,1510,1,6,1,0,6,1,2
14,3PM8NZGV8ZMV6NW84Z0HP9WF9SPXQG,A1A3TGZ7DKJWRW,3WPCIUYH1AESDDLQ40OYBN9QSLSDT1,2,999,187,1359,6,5,1,0,5,6,3
14,3PM8NZGV8ZMV6NW84Z0HP9WF9SPXQG,A1A3TGZ7DKJWRW,3WPCIUYH1AESDDLQ40OYBN9QSLSDT1,2,999,188,1118,4,7,0,2,4,1,7
14,3PM8NZGV8ZMV6NW84Z0HP9WF9SPXQG,A1A3TGZ7DKJWRW,3WPCIUYH1AESDDLQ40OYBN9QSLSDT1,2,999,189,1292,3,4,0,1,3,4,6
14,3PM8NZGV8ZMV6NW84Z0HP9WF9SPXQG,A1A3TGZ7DKJWRW,3WPCIUYH1AESDDLQ40OYBN9QSLSDT1,2,999,190,1199,1,5,0,2,1,3,5
14,3PM8NZGV8ZMV6NW84Z0HP9WF9SPXQG,A1A3TGZ7DKJWRW,3WPCIUYH1AESDDLQ40OYBN9QSLSDT1,2,999,191,1396,7,4,1,2,5,7,4
14,3PM8NZGV8ZMV6NW84Z0HP9WF9SPXQG,A1A3TGZ7DKJWRW,3WPCIUYH1AESDDLQ40OYBN9QSLSDT1,2,999,192,2968,1,5,0,1,1,5,6
14,3PM8NZGV8ZMV6NW84Z0HP9WF9SPXQG,A1A3TGZ7DKJWRW,3WPCIUYH1AESDDLQ40OYBN9QSLSDT1,2,999,193,1250,7,4,0,1,7,4,3
14,3PM8NZGV8ZMV6NW84Z0HP9WF9SPXQG,A1A3TGZ7DKJWRW,3WPCIUYH1AESDDLQ40OYBN9QSLSDT1,2,999,194,1630,6,2,0,1,6,2,3
14,3PM8NZGV8ZMV6NW84Z0HP9WF9SPXQG,A1A3TGZ7DKJWRW,3WPCIUYH1AESDDLQ40OYBN9QSLSDT1,3,999,195,1455,170,170,true,true,170,170,182
14,3PM8NZGV8ZMV6NW84Z0HP9WF9SPXQG,A1A3TGZ7DKJWRW,3WPCIUYH1AESDDLQ40OYBN9QSLSDT1,2,999,196,1056,4,7,0,2,4,6,7
14,3PM8NZGV8ZMV6NW84Z0HP9WF9SPXQG,A1A3TGZ7DKJWRW,3WPCIUYH1AESDDLQ40OYBN9QSLSDT1,2,999,197,1213,1,6,1,2,3,1,6
14,3PM8NZGV8ZMV6NW84Z0HP9WF9SPXQG,A1A3TGZ7DKJWRW,3WPCIUYH1AESDDLQ40OYBN9QSLSDT1,2,999,198,1835,5,2,0,2,5,3,2
14,3PM8NZGV8ZMV6NW84Z0HP9WF9SPXQG,A1A3TGZ7DKJWRW,3WPCIUYH1AESDDLQ40OYBN9QSLSDT1,2,999,199,1439,1,3,0,1,1,3,4
14,3PM8NZGV8ZMV6NW84Z0HP9WF9SPXQG,A1A3TGZ7DKJWRW,3WPCIUYH1AESDDLQ40OYBN9QSLSDT1,2,999,200,1172,6,2,0,2,6,4,2
14,3PM8NZGV8ZMV6NW84Z0HP9WF9SPXQG,A1A3TGZ7DKJWRW,3WPCIUYH1AESDDLQ40OYBN9QSLSDT1,2,999,201,1290,5,6,0,2,5,4,6
14,3PM8NZGV8ZMV6NW84Z0HP9WF9SPXQG,A1A3TGZ7DKJWRW,3WPCIUYH1AESDDLQ40OYBN9QSLSDT1,2,999,202,1255,1,5,1,2,7,1,5
14,3PM8NZGV8ZMV6NW84Z0HP9WF9SPXQG,A1A3TGZ7DKJWRW,3WPCIUYH1AESDDLQ40OYBN9QSLSDT1,2,999,203,1450,5,2,1,2,4,5,2
14,3PM8NZGV8ZMV6NW84Z0HP9WF9SPXQG,A1A3TGZ7DKJWRW,3WPCIUYH1AESDDLQ40OYBN9QSLSDT1,2,999,204,1541,2,1,1,2,4,2,1
14,3PM8NZGV8ZMV6NW84Z0HP9WF9SPXQG,A1A3TGZ7DKJWRW,3WPCIUYH1AESDDLQ40OYBN9QSLSDT1,2,999,205,1400,1,5,1,2,4,1,5
14,3PM8NZGV8ZMV6NW84Z0HP9WF9SPXQG,A1A3TGZ7DKJWRW,3WPCIUYH1AESDDLQ40OYBN9QSLSDT1,2,999,206,1903,6,1,1,2,7,6,1
14,3PM8NZGV8ZMV6NW84Z0HP9WF9SPXQG,A1A3TGZ7DKJWRW,3WPCIUYH1AESDDLQ40OYBN9QSLSDT1,2,999,207,1537,1,3,1,0,3,1,7
14,3PM8NZGV8ZMV6NW84Z0HP9WF9SPXQG,A1A3TGZ7DKJWRW,3WPCIUYH1AESDDLQ40OYBN9QSLSDT1,2,999,208,952,3,7,0,1,3,7,5
14,3PM8NZGV8ZMV6NW84Z0HP9WF9SPXQG,A1A3TGZ7DKJWRW,3WPCIUYH1AESDDLQ40OYBN9QSLSDT1,2,999,209,1516,3,7,0,1,3,7,2
14,3PM8NZGV8ZMV6NW84Z0HP9WF9SPXQG,A1A3TGZ7DKJWRW,3WPCIUYH1AESDDLQ40OYBN9QSLSDT1,2,999,210,1780,5,1,1,2,2,5,1
14,3PM8NZGV8ZMV6NW84Z0HP9WF9SPXQG,A1A3TGZ7DKJWRW,3WPCIUYH1AESDDLQ40OYBN9QSLSDT1,2,999,211,1115,2,1,0,2,2,7,1
14,3PM8NZGV8ZMV6NW84Z0HP9WF9SPXQG,A1A3TGZ7DKJWRW,3WPCIUYH1AESDDLQ40OYBN9QSLSDT1,2,999,212,1681,2,6,0,2,2,5,6
14,3PM8NZGV8ZMV6NW84Z0HP9WF9SPXQG,A1A3TGZ7DKJWRW,3WPCIUYH1AESDDLQ40OYBN9QSLSDT1,2,999,213,1271,4,3,1,2,5,4,3
14,3PM8NZGV8ZMV6NW84Z0HP9WF9SPXQG,A1A3TGZ7DKJWRW,3WPCIUYH1AESDDLQ40OYBN9QSLSDT1,2,999,214,1244,3,7,1,2,6,3,7
14,3PM8NZGV8ZMV6NW84Z0HP9WF9SPXQG,A1A3TGZ7DKJWRW,3WPCIUYH1AESDDLQ40OYBN9QSLSDT1,2,999,215,3501,6,1,0,2,6,4,1
14,3PM8NZGV8ZMV6NW84Z0HP9WF9SPXQG,A1A3TGZ7DKJWRW,3WPCIUYH1AESDDLQ40OYBN9QSLSDT1,2,999,216,1217,3,4,0,1,3,4,6
14,3PM8NZGV8ZMV6NW84Z0HP9WF9SPXQG,A1A3TGZ7DKJWRW,3WPCIUYH1AESDDLQ40OYBN9QSLSDT1,2,999,217,1003,3,7,0,1,3,7,2
14,3PM8NZGV8ZMV6NW84Z0HP9WF9SPXQG,A1A3TGZ7DKJWRW,3WPCIUYH1AESDDLQ40OYBN9QSLSDT1,2,999,218,1525,4,2,0,1,4,2,1
14,3PM8NZGV8ZMV6NW84Z0HP9WF9SPXQG,A1A3TGZ7DKJWRW,3WPCIUYH1AESDDLQ40OYBN9QSLSDT1,2,999,219,1320,3,7,1,2,6,3,7
14,3PM8NZGV8ZMV6NW84Z0HP9WF9SPXQG,A1A3TGZ7DKJWRW,3WPCIUYH1AESDDLQ40OYBN9QSLSDT1,2,999,220,1832,6,2,0,2,6,7,2
14,3PM8NZGV8ZMV6NW84Z0HP9WF9SPXQG,A1A3TGZ7DKJWRW,3WPCIUYH1AESDDLQ40OYBN9QSLSDT1,2,999,221,2181,4,7,0,2,4,6,7
14,3PM8NZGV8ZMV6NW84Z0HP9WF9SPXQG,A1A3TGZ7DKJWRW,3WPCIUYH1AESDDLQ40OYBN9QSLSDT1,2,999,222,1303,3,7,0,2,3,1,7
14,3PM8NZGV8ZMV6NW84Z0HP9WF9SPXQG,A1A3TGZ7DKJWRW,3WPCIUYH1AESDDLQ40OYBN9QSLSDT1,2,999,223,2129,6,5,1,2,7,6,5
14,3PM8NZGV8ZMV6NW84Z0HP9WF9SPXQG,A1A3TGZ7DKJWRW,3WPCIUYH1AESDDLQ40OYBN9QSLSDT1,2,999,224,1210,1,5,1,2,4,1,5
14,3PM8NZGV8ZMV6NW84Z0HP9WF9SPXQG,A1A3TGZ7DKJWRW,3WPCIUYH1AESDDLQ40OYBN9QSLSDT1,2,999,225,1170,6,1,1,2,7,6,1
14,3PM8NZGV8ZMV6NW84Z0HP9WF9SPXQG,A1A3TGZ7DKJWRW,3WPCIUYH1AESDDLQ40OYBN9QSLSDT1,2,999,226,1149,7,4,1,2,5,7,4
14,3PM8NZGV8ZMV6NW84Z0HP9WF9SPXQG,A1A3TGZ7DKJWRW,3WPCIUYH1AESDDLQ40OYBN9QSLSDT1,2,999,227,1090,1,5,1,2,7,1,5
14,3PM8NZGV8ZMV6NW84Z0HP9WF9SPXQG,A1A3TGZ7DKJWRW,3WPCIUYH1AESDDLQ40OYBN9QSLSDT1,2,999,228,1724,6,5,1,0,5,6,3
14,3PM8NZGV8ZMV6NW84Z0HP9WF9SPXQG,A1A3TGZ7DKJWRW,3WPCIUYH1AESDDLQ40OYBN9QSLSDT1,2,999,229,1534,7,4,1,2,2,7,4
14,3PM8NZGV8ZMV6NW84Z0HP9WF9SPXQG,A1A3TGZ7DKJWRW,3WPCIUYH1AESDDLQ40OYBN9QSLSDT1,2,999,230,1843,2,6,1,0,6,2,3
14,3PM8NZGV8ZMV6NW84Z0HP9WF9SPXQG,A1A3TGZ7DKJWRW,3WPCIUYH1AESDDLQ40OYBN9QSLSDT1,2,999,231,1543,5,6,0,2,5,4,6
14,3PM8NZGV8ZMV6NW84Z0HP9WF9SPXQG,A1A3TGZ7DKJWRW,3WPCIUYH1AESDDLQ40OYBN9QSLSDT1,2,999,232,2244,3,2,1,2,5,3,2
14,3PM8NZGV8ZMV6NW84Z0HP9WF9SPXQG,A1A3TGZ7DKJWRW,3WPCIUYH1AESDDLQ40OYBN9QSLSDT1,2,999,233,1432,3,4,0,2,3,2,4
14,3PM8NZGV8ZMV6NW84Z0HP9WF9SPXQG,A1A3TGZ7DKJWRW,3WPCIUYH1AESDDLQ40OYBN9QSLSDT1,2,999,234,1519,5,2,0,1,5,2,7
14,3PM8NZGV8ZMV6NW84Z0HP9WF9SPXQG,A1A3TGZ7DKJWRW,3WPCIUYH1AESDDLQ40OYBN9QSLSDT1,2,999,235,1367,2,6,0,2,2,5,6
14,3PM8NZGV8ZMV6NW84Z0HP9WF9SPXQG,A1A3TGZ7DKJWRW,3WPCIUYH1AESDDLQ40OYBN9QSLSDT1,2,999,236,1150,4,7,0,2,4,1,7
14,3PM8NZGV8ZMV6NW84Z0HP9WF9SPXQG,A1A3TGZ7DKJWRW,3WPCIUYH1AESDDLQ40OYBN9QSLSDT1,2,999,237,1580,2,1,0,2,2,7,1
14,3PM8NZGV8ZMV6NW84Z0HP9WF9SPXQG,A1A3TGZ7DKJWRW,3WPCIUYH1AESDDLQ40OYBN9QSLSDT1,2,999,238,1456,4,3,1,2,5,4,3
14,3PM8NZGV8ZMV6NW84Z0HP9WF9SPXQG,A1A3TGZ7DKJWRW,3WPCIUYH1AESDDLQ40OYBN9QSLSDT1,2,999,239,1382,2,5,0,1,2,5,1
14,3PM8NZGV8ZMV6NW84Z0HP9WF9SPXQG,A1A3TGZ7DKJWRW,3WPCIUYH1AESDDLQ40OYBN9QSLSDT1,2,999,240,1646,1,3,0,1,1,3,4
14,3PM8NZGV8ZMV6NW84Z0HP9WF9SPXQG,A1A3TGZ7DKJWRW,3WPCIUYH1AESDDLQ40OYBN9QSLSDT1,2,999,241,3044,3,6,0,2,3,1,6
14,3PM8NZGV8ZMV6NW84Z0HP9WF9SPXQG,A1A3TGZ7DKJWRW,3WPCIUYH1AESDDLQ40OYBN9QSLSDT1,2,999,242,1899,4,6,1,0,6,4,2
14,3PM8NZGV8ZMV6NW84Z0HP9WF9SPXQG,A1A3TGZ7DKJWRW,3WPCIUYH1AESDDLQ40OYBN9QSLSDT1,2,999,243,1536,1,5,0,1,1,5,6
14,3PM8NZGV8ZMV6NW84Z0HP9WF9SPXQG,A1A3TGZ7DKJWRW,3WPCIUYH1AESDDLQ40OYBN9QSLSDT1,3,999,244,1219,198,198,true,true,198,198,194
14,3PM8NZGV8ZMV6NW84Z0HP9WF9SPXQG,A1A3TGZ7DKJWRW,3WPCIUYH1AESDDLQ40OYBN9QSLSDT1,2,999,245,1415,5,2,1,2,4,5,2
14,3PM8NZGV8ZMV6NW84Z0HP9WF9SPXQG,A1A3TGZ7DKJWRW,3WPCIUYH1AESDDLQ40OYBN9QSLSDT1,2,999,246,1264,7,4,0,1,7,4,3
14,3PM8NZGV8ZMV6NW84Z0HP9WF9SPXQG,A1A3TGZ7DKJWRW,3WPCIUYH1AESDDLQ40OYBN9QSLSDT1,2,999,247,2138,5,1,2,0,1,3,5
14,3PM8NZGV8ZMV6NW84Z0HP9WF9SPXQG,A1A3TGZ7DKJWRW,3WPCIUYH1AESDDLQ40OYBN9QSLSDT1,2,999,248,1719,6,2,0,2,6,1,2
14,3PM8NZGV8ZMV6NW84Z0HP9WF9SPXQG,A1A3TGZ7DKJWRW,3WPCIUYH1AESDDLQ40OYBN9QSLSDT1,2,999,249,952,3,7,0,1,3,7,5
14,3PM8NZGV8ZMV6NW84Z0HP9WF9SPXQG,A1A3TGZ7DKJWRW,3WPCIUYH1AESDDLQ40OYBN9QSLSDT1,2,999,250,1862,1,3,0,1,1,3,2
15,33JKGHPFYD0Z9EKCA06RAYLCXDJNM0,A243MVNC6OLKBF,3ZVPAMTJWN9I9IIP21KBHTB5HSBGR1,1,1,7,10928,18,19,0,1,18,19,16
15,33JKGHPFYD0Z9EKCA06RAYLCXDJNM0,A243MVNC6OLKBF,3ZVPAMTJWN9I9IIP21KBHTB5HSBGR1,1,1,15,13814,10,17,1,2,18,10,17
15,33JKGHPFYD0Z9EKCA06RAYLCXDJNM0,A243MVNC6OLKBF,3ZVPAMTJWN9I9IIP21KBHTB5HSBGR1,1,1,16,5558,12,20,1,2,16,12,20
15,33JKGHPFYD0Z9EKCA06RAYLCXDJNM0,A243MVNC6OLKBF,3ZVPAMTJWN9I9IIP21KBHTB5HSBGR1,2,999,18,17722,2,1,2,1,6,1,2
15,33JKGHPFYD0Z9EKCA06RAYLCXDJNM0,A243MVNC6OLKBF,3ZVPAMTJWN9I9IIP21KBHTB5HSBGR1,2,999,19,3178,4,3,1,0,3,4,6
15,33JKGHPFYD0Z9EKCA06RAYLCXDJNM0,A243MVNC6OLKBF,3ZVPAMTJWN9I9IIP21KBHTB5HSBGR1,2,999,20,15139,5,1,2,1,7,1,5
15,33JKGHPFYD0Z9EKCA06RAYLCXDJNM0,A243MVNC6OLKBF,3ZVPAMTJWN9I9IIP21KBHTB5HSBGR1,2,999,21,3375,5,6,0,1,5,6,3
15,33JKGHPFYD0Z9EKCA06RAYLCXDJNM0,A243MVNC6OLKBF,3ZVPAMTJWN9I9IIP21KBHTB5HSBGR1,2,999,22,3789,4,3,2,0,3,2,4
15,33JKGHPFYD0Z9EKCA06RAYLCXDJNM0,A243MVNC6OLKBF,3ZVPAMTJWN9I9IIP21KBHTB5HSBGR1,2,999,23,2260,3,7,0,1,3,7,2
15,33JKGHPFYD0Z9EKCA06RAYLCXDJNM0,A243MVNC6OLKBF,3ZVPAMTJWN9I9IIP21KBHTB5HSBGR1,2,999,24,5285,4,3,1,2,5,4,3
15,33JKGHPFYD0Z9EKCA06RAYLCXDJNM0,A243MVNC6OLKBF,3ZVPAMTJWN9I9IIP21KBHTB5HSBGR1,2,999,25,5812,7,4,2,0,4,1,7
15,33JKGHPFYD0Z9EKCA06RAYLCXDJNM0,A243MVNC6OLKBF,3ZVPAMTJWN9I9IIP21KBHTB5HSBGR1,2,999,26,4009,1,5,2,1,2,5,1
15,33JKGHPFYD0Z9EKCA06RAYLCXDJNM0,A243MVNC6OLKBF,3ZVPAMTJWN9I9IIP21KBHTB5HSBGR1,2,999,27,7473,6,1,2,0,1,5,6
15,33JKGHPFYD0Z9EKCA06RAYLCXDJNM0,A243MVNC6OLKBF,3ZVPAMTJWN9I9IIP21KBHTB5HSBGR1,2,999,28,7359,7,5,0,2,7,6,5
15,33JKGHPFYD0Z9EKCA06RAYLCXDJNM0,A243MVNC6OLKBF,3ZVPAMTJWN9I9IIP21KBHTB5HSBGR1,2,999,29,5839,7,3,0,2,7,4,3
15,33JKGHPFYD0Z9EKCA06RAYLCXDJNM0,A243MVNC6OLKBF,3ZVPAMTJWN9I9IIP21KBHTB5HSBGR1,2,999,30,3891,3,7,1,2,6,3,7
15,33JKGHPFYD0Z9EKCA06RAYLCXDJNM0,A243MVNC6OLKBF,3ZVPAMTJWN9I9IIP21KBHTB5HSBGR1,2,999,31,8486,6,1,1,2,7,6,1
15,33JKGHPFYD0Z9EKCA06RAYLCXDJNM0,A243MVNC6OLKBF,3ZVPAMTJWN9I9IIP21KBHTB5HSBGR1,2,999,32,9034,5,7,0,2,5,2,7
15,33JKGHPFYD0Z9EKCA06RAYLCXDJNM0,A243MVNC6OLKBF,3ZVPAMTJWN9I9IIP21KBHTB5HSBGR1,2,999,33,16828,1,3,1,0,3,1,6
15,33JKGHPFYD0Z9EKCA06RAYLCXDJNM0,A243MVNC6OLKBF,3ZVPAMTJWN9I9IIP21KBHTB5HSBGR1,2,999,34,7456,1,2,0,2,1,3,2
15,33JKGHPFYD0Z9EKCA06RAYLCXDJNM0,A243MVNC6OLKBF,3ZVPAMTJWN9I9IIP21KBHTB5HSBGR1,2,999,35,4989,6,2,0,1,6,2,3
15,33JKGHPFYD0Z9EKCA06RAYLCXDJNM0,A243MVNC6OLKBF,3ZVPAMTJWN9I9IIP21KBHTB5HSBGR1,2,999,36,3055,6,2,0,2,6,7,2
15,33JKGHPFYD0Z9EKCA06RAYLCXDJNM0,A243MVNC6OLKBF,3ZVPAMTJWN9I9IIP21KBHTB5HSBGR1,2,999,37,4521,3,4,1,2,1,3,4
15,33JKGHPFYD0Z9EKCA06RAYLCXDJNM0,A243MVNC6OLKBF,3ZVPAMTJWN9I9IIP21KBHTB5HSBGR1,2,999,38,3591,1,2,2,1,4,2,1
15,33JKGHPFYD0Z9EKCA06RAYLCXDJNM0,A243MVNC6OLKBF,3ZVPAMTJWN9I9IIP21KBHTB5HSBGR1,2,999,39,12281,7,6,2,1,4,6,7
15,33JKGHPFYD0Z9EKCA06RAYLCXDJNM0,A243MVNC6OLKBF,3ZVPAMTJWN9I9IIP21KBHTB5HSBGR1,2,999,40,5519,3,5,1,2,1,3,5
15,33JKGHPFYD0Z9EKCA06RAYLCXDJNM0,A243MVNC6OLKBF,3ZVPAMTJWN9I9IIP21KBHTB5HSBGR1,2,999,41,5901,5,2,1,0,2,5,6
15,33JKGHPFYD0Z9EKCA06RAYLCXDJNM0,A243MVNC6OLKBF,3ZVPAMTJWN9I9IIP21KBHTB5HSBGR1,2,999,42,4888,7,5,1,0,5,7,4
15,33JKGHPFYD0Z9EKCA06RAYLCXDJNM0,A243MVNC6OLKBF,3ZVPAMTJWN9I9IIP21KBHTB5HSBGR1,3,999,43,2394,164,164,true,true,164,164,188
15,33JKGHPFYD0Z9EKCA06RAYLCXDJNM0,A243MVNC6OLKBF,3ZVPAMTJWN9I9IIP21KBHTB5HSBGR1,2,999,44,6416,1,5,1,2,4,1,5
15,33JKGHPFYD0Z9EKCA06RAYLCXDJNM0,A243MVNC6OLKBF,3ZVPAMTJWN9I9IIP21KBHTB5HSBGR1,2,999,45,2893,3,5,1,0,5,3,2
15,33JKGHPFYD0Z9EKCA06RAYLCXDJNM0,A243MVNC6OLKBF,3ZVPAMTJWN9I9IIP21KBHTB5HSBGR1,2,999,46,2129,3,7,0,1,3,7,5
15,33JKGHPFYD0Z9EKCA06RAYLCXDJNM0,A243MVNC6OLKBF,3ZVPAMTJWN9I9IIP21KBHTB5HSBGR1,2,999,47,5678,2,6,2,0,6,4,2
15,33JKGHPFYD0Z9EKCA06RAYLCXDJNM0,A243MVNC6OLKBF,3ZVPAMTJWN9I9IIP21KBHTB5HSBGR1,2,999,48,2947,5,2,1,2,4,5,2
15,33JKGHPFYD0Z9EKCA06RAYLCXDJNM0,A243MVNC6OLKBF,3ZVPAMTJWN9I9IIP21KBHTB5HSBGR1,2,999,49,6552,4,6,1,0,6,4,1
15,33JKGHPFYD0Z9EKCA06RAYLCXDJNM0,A243MVNC6OLKBF,3ZVPAMTJWN9I9IIP21KBHTB5HSBGR1,2,999,50,4014,6,4,2,1,5,4,6
15,33JKGHPFYD0Z9EKCA06RAYLCXDJNM0,A243MVNC6OLKBF,3ZVPAMTJWN9I9IIP21KBHTB5HSBGR1,2,999,51,3086,3,7,0,2,3,1,7
15,33JKGHPFYD0Z9EKCA06RAYLCXDJNM0,A243MVNC6OLKBF,3ZVPAMTJWN9I9IIP21KBHTB5HSBGR1,2,999,52,6977,2,7,0,1,2,7,4
15,33JKGHPFYD0Z9EKCA06RAYLCXDJNM0,A243MVNC6OLKBF,3ZVPAMTJWN9I9IIP21KBHTB5HSBGR1,2,999,53,5793,2,7,1,0,2,7,1
15,33JKGHPFYD0Z9EKCA06RAYLCXDJNM0,A243MVNC6OLKBF,3ZVPAMTJWN9I9IIP21KBHTB5HSBGR1,2,999,98,3603,6,1,0,1,6,1,2
15,33JKGHPFYD0Z9EKCA06RAYLCXDJNM0,A243MVNC6OLKBF,3ZVPAMTJWN9I9IIP21KBHTB5HSBGR1,2,999,99,5695,1,5,0,2,1,3,5
15,33JKGHPFYD0Z9EKCA06RAYLCXDJNM0,A243MVNC6OLKBF,3ZVPAMTJWN9I9IIP21KBHTB5HSBGR1,2,999,100,2497,3,7,0,1,3,7,2
15,33JKGHPFYD0Z9EKCA06RAYLCXDJNM0,A243MVNC6OLKBF,3ZVPAMTJWN9I9IIP21KBHTB5HSBGR1,2,999,101,2996,5,7,0,2,5,2,7
15,33JKGHPFYD0Z9EKCA06RAYLCXDJNM0,A243MVNC6OLKBF,3ZVPAMTJWN9I9IIP21KBHTB5HSBGR1,2,999,102,2651,1,6,2,1,7,6,1
15,33JKGHPFYD0Z9EKCA06RAYLCXDJNM0,A243MVNC6OLKBF,3ZVPAMTJWN9I9IIP21KBHTB5HSBGR1,2,999,103,2249,2,1,1,2,4,2,1
15,33JKGHPFYD0Z9EKCA06RAYLCXDJNM0,A243MVNC6OLKBF,3ZVPAMTJWN9I9IIP21KBHTB5HSBGR1,2,999,104,3005,5,7,2,0,7,6,5
15,33JKGHPFYD0Z9EKCA06RAYLCXDJNM0,A243MVNC6OLKBF,3ZVPAMTJWN9I9IIP21KBHTB5HSBGR1,2,999,105,19413,6,2,0,1,6,2,3
15,33JKGHPFYD0Z9EKCA06RAYLCXDJNM0,A243MVNC6OLKBF,3ZVPAMTJWN9I9IIP21KBHTB5HSBGR1,2,999,106,3899,1,5,1,2,4,1,5
15,33JKGHPFYD0Z9EKCA06RAYLCXDJNM0,A243MVNC6OLKBF,3ZVPAMTJWN9I9IIP21KBHTB5HSBGR1,2,999,107,5082,6,4,1,0,4,6,7
15,33JKGHPFYD0Z9EKCA06RAYLCXDJNM0,A243MVNC6OLKBF,3ZVPAMTJWN9I9IIP21KBHTB5HSBGR1,2,999,108,3225,6,4,2,1,5,4,6
15,33JKGHPFYD0Z9EKCA06RAYLCXDJNM0,A243MVNC6OLKBF,3ZVPAMTJWN9I9IIP21KBHTB5HSBGR1,2,999,109,5359,3,4,0,2,3,2,4
15,33JKGHPFYD0Z9EKCA06RAYLCXDJNM0,A243MVNC6OLKBF,3ZVPAMTJWN9I9IIP21KBHTB5HSBGR1,2,999,110,2811,2,1,0,2,2,7,1
15,33JKGHPFYD0Z9EKCA06RAYLCXDJNM0,A243MVNC6OLKBF,3ZVPAMTJWN9I9IIP21KBHTB5HSBGR1,2,999,111,5809,4,3,1,0,3,4,6
15,33JKGHPFYD0Z9EKCA06RAYLCXDJNM0,A243MVNC6OLKBF,3ZVPAMTJWN9I9IIP21KBHTB5HSBGR1,2,999,112,4043,6,3,1,2,5,6,3
15,33JKGHPFYD0Z9EKCA06RAYLCXDJNM0,A243MVNC6OLKBF,3ZVPAMTJWN9I9IIP21KBHTB5HSBGR1,2,999,113,3162,5,2,0,2,5,3,2
15,33JKGHPFYD0Z9EKCA06RAYLCXDJNM0,A243MVNC6OLKBF,3ZVPAMTJWN9I9IIP21KBHTB5HSBGR1,2,999,114,4336,4,3,1,2,7,4,3
15,33JKGHPFYD0Z9EKCA06RAYLCXDJNM0,A243MVNC6OLKBF,3ZVPAMTJWN9I9IIP21KBHTB5HSBGR1,2,999,115,5072,1,6,1,2,3,1,6
15,33JKGHPFYD0Z9EKCA06RAYLCXDJNM0,A243MVNC6OLKBF,3ZVPAMTJWN9I9IIP21KBHTB5HSBGR1,2,999,116,5851,4,1,1,0,4,1,7
15,33JKGHPFYD0Z9EKCA06RAYLCXDJNM0,A243MVNC6OLKBF,3ZVPAMTJWN9I9IIP21KBHTB5HSBGR1,2,999,117,9367,6,2,0,2,6,7,2
15,33JKGHPFYD0Z9EKCA06RAYLCXDJNM0,A243MVNC6OLKBF,3ZVPAMTJWN9I9IIP21KBHTB5HSBGR1,2,999,118,3225,6,1,0,2,6,4,1
15,33JKGHPFYD0Z9EKCA06RAYLCXDJNM0,A243MVNC6OLKBF,3ZVPAMTJWN9I9IIP21KBHTB5HSBGR1,2,999,119,2565,1,6,0,2,1,5,6
15,33JKGHPFYD0Z9EKCA06RAYLCXDJNM0,A243MVNC6OLKBF,3ZVPAMTJWN9I9IIP21KBHTB5HSBGR1,3,999,120,8891,141,181,false,false,181,181,141
15,33JKGHPFYD0Z9EKCA06RAYLCXDJNM0,A243MVNC6OLKBF,3ZVPAMTJWN9I9IIP21KBHTB5HSBGR1,2,999,121,12717,3,7,1,2,6,3,7
15,33JKGHPFYD0Z9EKCA06RAYLCXDJNM0,A243MVNC6OLKBF,3ZVPAMTJWN9I9IIP21KBHTB5HSBGR1,2,999,122,9001,7,5,0,2,7,1,5
15,33JKGHPFYD0Z9EKCA06RAYLCXDJNM0,A243MVNC6OLKBF,3ZVPAMTJWN9I9IIP21KBHTB5HSBGR1,2,999,123,6367,3,1,1,0,1,3,4
15,33JKGHPFYD0Z9EKCA06RAYLCXDJNM0,A243MVNC6OLKBF,3ZVPAMTJWN9I9IIP21KBHTB5HSBGR1,2,999,124,3904,1,2,0,2,1,3,2
15,33JKGHPFYD0Z9EKCA06RAYLCXDJNM0,A243MVNC6OLKBF,3ZVPAMTJWN9I9IIP21KBHTB5HSBGR1,2,999,125,3661,3,7,0,2,3,1,7
15,33JKGHPFYD0Z9EKCA06RAYLCXDJNM0,A243MVNC6OLKBF,3ZVPAMTJWN9I9IIP21KBHTB5HSBGR1,2,999,126,4547,6,4,0,1,6,4,2
15,33JKGHPFYD0Z9EKCA06RAYLCXDJNM0,A243MVNC6OLKBF,3ZVPAMTJWN9I9IIP21KBHTB5HSBGR1,2,999,127,2907,2,1,0,2,2,5,1
15,33JKGHPFYD0Z9EKCA06RAYLCXDJNM0,A243MVNC6OLKBF,3ZVPAMTJWN9I9IIP21KBHTB5HSBGR1,2,999,128,3444,7,3,1,0,3,7,5
15,33JKGHPFYD0Z9EKCA06RAYLCXDJNM0,A243MVNC6OLKBF,3ZVPAMTJWN9I9IIP21KBHTB5HSBGR1,2,999,129,6650,4,3,1,2,5,4,3
15,33JKGHPFYD0Z9EKCA06RAYLCXDJNM0,A243MVNC6OLKBF,3ZVPAMTJWN9I9IIP21KBHTB5HSBGR1,2,999,130,3778,6,2,2,0,2,5,6
15,33JKGHPFYD0Z9EKCA06RAYLCXDJNM0,A243MVNC6OLKBF,3ZVPAMTJWN9I9IIP21KBHTB5HSBGR1,2,999,131,4387,2,7,0,1,2,7,4
15,33JKGHPFYD0Z9EKCA06RAYLCXDJNM0,A243MVNC6OLKBF,3ZVPAMTJWN9I9IIP21KBHTB5HSBGR1,2,999,132,3346,7,5,1,0,5,7,4
15,33JKGHPFYD0Z9EKCA06RAYLCXDJNM0,A243MVNC6OLKBF,3ZVPAMTJWN9I9IIP21KBHTB5HSBGR1,2,999,133,5472,2,5,2,1,4,5,2
15,33JKGHPFYD0Z9EKCA06RAYLCXDJNM0,A243MVNC6OLKBF,3ZVPAMTJWN9I9IIP21KBHTB5HSBGR1,2,999,179,3321,6,1,0,2,6,4,1
15,33JKGHPFYD0Z9EKCA06RAYLCXDJNM0,A243MVNC6OLKBF,3ZVPAMTJWN9I9IIP21KBHTB5HSBGR1,2,999,180,6555,4,7,0,2,4,6,7
15,33JKGHPFYD0Z9EKCA06RAYLCXDJNM0,A243MVNC6OLKBF,3ZVPAMTJWN9I9IIP21KBHTB5HSBGR1,2,999,181,7599,6,2,0,2,6,4,2
15,33JKGHPFYD0Z9EKCA06RAYLCXDJNM0,A243MVNC6OLKBF,3ZVPAMTJWN9I9IIP21KBHTB5HSBGR1,2,999,182,8187,2,6,0,2,2,5,6
15,33JKGHPFYD0Z9EKCA06RAYLCXDJNM0,A243MVNC6OLKBF,3ZVPAMTJWN9I9IIP21KBHTB5HSBGR1,2,999,183,3143,7,5,2,0,5,2,7
15,33JKGHPFYD0Z9EKCA06RAYLCXDJNM0,A243MVNC6OLKBF,3ZVPAMTJWN9I9IIP21KBHTB5HSBGR1,3,999,184,3804,141,141,true,true,141,141,194
15,33JKGHPFYD0Z9EKCA06RAYLCXDJNM0,A243MVNC6OLKBF,3ZVPAMTJWN9I9IIP21KBHTB5HSBGR1,2,999,185,2657,7,3,0,2,7,4,3
15,33JKGHPFYD0Z9EKCA06RAYLCXDJNM0,A243MVNC6OLKBF,3ZVPAMTJWN9I9IIP21KBHTB5HSBGR1,2,999,186,2105,3,7,0,1,3,7,2
15,33JKGHPFYD0Z9EKCA06RAYLCXDJNM0,A243MVNC6OLKBF,3ZVPAMTJWN9I9IIP21KBHTB5HSBGR1,2,999,187,3203,1,6,1,2,3,1,6
15,33JKGHPFYD0Z9EKCA06RAYLCXDJNM0,A243MVNC6OLKBF,3ZVPAMTJWN9I9IIP21KBHTB5HSBGR1,2,999,188,3069,7,5,1,0,5,7,4
15,33JKGHPFYD0Z9EKCA06RAYLCXDJNM0,A243MVNC6OLKBF,3ZVPAMTJWN9I9IIP21KBHTB5HSBGR1,2,999,189,8566,6,5,1,0,5,6,3
15,33JKGHPFYD0Z9EKCA06RAYLCXDJNM0,A243MVNC6OLKBF,3ZVPAMTJWN9I9IIP21KBHTB5HSBGR1,2,999,190,4788,7,4,2,0,4,1,7
15,33JKGHPFYD0Z9EKCA06RAYLCXDJNM0,A243MVNC6OLKBF,3ZVPAMTJWN9I9IIP21KBHTB5HSBGR1,2,999,191,2289,2,1,0,2,2,7,1
15,33JKGHPFYD0Z9EKCA06RAYLCXDJNM0,A243MVNC6OLKBF,3ZVPAMTJWN9I9IIP21KBHTB5HSBGR1,2,999,192,3082,3,7,0,2,3,1,7
15,33JKGHPFYD0Z9EKCA06RAYLCXDJNM0,A243MVNC6OLKBF,3ZVPAMTJWN9I9IIP21KBHTB5HSBGR1,2,999,193,6125,4,6,1,2,5,4,6
15,33JKGHPFYD0Z9EKCA06RAYLCXDJNM0,A243MVNC6OLKBF,3ZVPAMTJWN9I9IIP21KBHTB5HSBGR1,2,999,194,2759,2,1,0,2,2,5,1
15,33JKGHPFYD0Z9EKCA06RAYLCXDJNM0,A243MVNC6OLKBF,3ZVPAMTJWN9I9IIP21KBHTB5HSBGR1,2,999,195,4789,5,1,2,1,4,1,5
15,33JKGHPFYD0Z9EKCA06RAYLCXDJNM0,A243MVNC6OLKBF,3ZVPAMTJWN9I9IIP21KBHTB5HSBGR1,2,999,196,6136,2,6,1,0,6,2,3
15,33JKGHPFYD0Z9EKCA06RAYLCXDJNM0,A243MVNC6OLKBF,3ZVPAMTJWN9I9IIP21KBHTB5HSBGR1,2,999,197,4107,2,1,1,2,4,2,1
15,33JKGHPFYD0Z9EKCA06RAYLCXDJNM0,A243MVNC6OLKBF,3ZVPAMTJWN9I9IIP21KBHTB5HSBGR1,2,999,198,6163,7,2,1,0,2,7,4
15,33JKGHPFYD0Z9EKCA06RAYLCXDJNM0,A243MVNC6OLKBF,3ZVPAMTJWN9I9IIP21KBHTB5HSBGR1,2,999,199,3729,1,6,1,0,6,1,2
15,33JKGHPFYD0Z9EKCA06RAYLCXDJNM0,A243MVNC6OLKBF,3ZVPAMTJWN9I9IIP21KBHTB5HSBGR1,2,999,200,4900,5,3,0,2,5,4,3
15,33JKGHPFYD0Z9EKCA06RAYLCXDJNM0,A243MVNC6OLKBF,3ZVPAMTJWN9I9IIP21KBHTB5HSBGR1,2,999,201,3155,1,3,0,1,1,3,5
15,33JKGHPFYD0Z9EKCA06RAYLCXDJNM0,A243MVNC6OLKBF,3ZVPAMTJWN9I9IIP21KBHTB5HSBGR1,2,999,202,2293,3,1,1,0,1,3,4
15,33JKGHPFYD0Z9EKCA06RAYLCXDJNM0,A243MVNC6OLKBF,3ZVPAMTJWN9I9IIP21KBHTB5HSBGR1,2,999,203,4471,4,3,1,0,3,4,6
15,33JKGHPFYD0Z9EKCA06RAYLCXDJNM0,A243MVNC6OLKBF,3ZVPAMTJWN9I9IIP21KBHTB5HSBGR1,2,999,204,1983,1,3,0,1,1,3,2
15,33JKGHPFYD0Z9EKCA06RAYLCXDJNM0,A243MVNC6OLKBF,3ZVPAMTJWN9I9IIP21KBHTB5HSBGR1,2,999,205,2962,7,3,1,0,3,7,5
15,33JKGHPFYD0Z9EKCA06RAYLCXDJNM0,A243MVNC6OLKBF,3ZVPAMTJWN9I9IIP21KBHTB5HSBGR1,2,999,206,3419,1,6,0,2,1,5,6
15,33JKGHPFYD0Z9EKCA06RAYLCXDJNM0,A243MVNC6OLKBF,3ZVPAMTJWN9I9IIP21KBHTB5HSBGR1,2,999,207,3001,7,5,0,2,7,1,5
15,33JKGHPFYD0Z9EKCA06RAYLCXDJNM0,A243MVNC6OLKBF,3ZVPAMTJWN9I9IIP21KBHTB5HSBGR1,2,999,208,5697,3,4,0,2,3,2,4
15,33JKGHPFYD0Z9EKCA06RAYLCXDJNM0,A243MVNC6OLKBF,3ZVPAMTJWN9I9IIP21KBHTB5HSBGR1,2,999,209,4008,7,3,2,1,6,3,7
15,33JKGHPFYD0Z9EKCA06RAYLCXDJNM0,A243MVNC6OLKBF,3ZVPAMTJWN9I9IIP21KBHTB5HSBGR1,2,999,210,5363,2,5,2,1,4,5,2
15,33JKGHPFYD0Z9EKCA06RAYLCXDJNM0,A243MVNC6OLKBF,3ZVPAMTJWN9I9IIP21KBHTB5HSBGR1,2,999,211,8501,3,5,1,0,5,3,2
15,33JKGHPFYD0Z9EKCA06RAYLCXDJNM0,A243MVNC6OLKBF,3ZVPAMTJWN9I9IIP21KBHTB5HSBGR1,2,999,212,3005,6,2,0,2,6,7,2
15,33JKGHPFYD0Z9EKCA06RAYLCXDJNM0,A243MVNC6OLKBF,3ZVPAMTJWN9I9IIP21KBHTB5HSBGR1,2,999,213,4812,6,1,1,2,7,6,1
15,33JKGHPFYD0Z9EKCA06RAYLCXDJNM0,A243MVNC6OLKBF,3ZVPAMTJWN9I9IIP21KBHTB5HSBGR1,2,999,214,3688,7,5,0,2,7,6,5
15,33JKGHPFYD0Z9EKCA06RAYLCXDJNM0,A243MVNC6OLKBF,3ZVPAMTJWN9I9IIP21KBHTB5HSBGR1,2,999,215,6025,3,7,1,2,6,3,7
15,33JKGHPFYD0Z9EKCA06RAYLCXDJNM0,A243MVNC6OLKBF,3ZVPAMTJWN9I9IIP21KBHTB5HSBGR1,2,999,216,6872,4,3,1,0,3,4,6
15,33JKGHPFYD0Z9EKCA06RAYLCXDJNM0,A243MVNC6OLKBF,3ZVPAMTJWN9I9IIP21KBHTB5HSBGR1,2,999,217,3629,6,1,1,2,7,6,1
15,33JKGHPFYD0Z9EKCA06RAYLCXDJNM0,A243MVNC6OLKBF,3ZVPAMTJWN9I9IIP21KBHTB5HSBGR1,2,999,218,3311,1,3,0,1,1,3,4
15,33JKGHPFYD0Z9EKCA06RAYLCXDJNM0,A243MVNC6OLKBF,3ZVPAMTJWN9I9IIP21KBHTB5HSBGR1,2,999,219,4564,5,2,1,2,4,5,2
15,33JKGHPFYD0Z9EKCA06RAYLCXDJNM0,A243MVNC6OLKBF,3ZVPAMTJWN9I9IIP21KBHTB5HSBGR1,2,999,220,4683,2,6,1,0,6,2,3
15,33JKGHPFYD0Z9EKCA06RAYLCXDJNM0,A243MVNC6OLKBF,3ZVPAMTJWN9I9IIP21KBHTB5HSBGR1,2,999,221,2388,2,1,0,2,2,5,1
15,33JKGHPFYD0Z9EKCA06RAYLCXDJNM0,A243MVNC6OLKBF,3ZVPAMTJWN9I9IIP21KBHTB5HSBGR1,2,999,222,2688,3,5,2,0,5,4,3
15,33JKGHPFYD0Z9EKCA06RAYLCXDJNM0,A243MVNC6OLKBF,3ZVPAMTJWN9I9IIP21KBHTB5HSBGR1,2,999,223,2006,7,3,0,2,7,4,3
15,33JKGHPFYD0Z9EKCA06RAYLCXDJNM0,A243MVNC6OLKBF,3ZVPAMTJWN9I9IIP21KBHTB5HSBGR1,2,999,224,2661,5,3,0,2,5,6,3
15,33JKGHPFYD0Z9EKCA06RAYLCXDJNM0,A243MVNC6OLKBF,3ZVPAMTJWN9I9IIP21KBHTB5HSBGR1,2,999,225,2503,7,5,1,0,5,7,4
15,33JKGHPFYD0Z9EKCA06RAYLCXDJNM0,A243MVNC6OLKBF,3ZVPAMTJWN9I9IIP21KBHTB5HSBGR1,2,999,226,3281,7,5,0,2,7,6,5
15,33JKGHPFYD0Z9EKCA06RAYLCXDJNM0,A243MVNC6OLKBF,3ZVPAMTJWN9I9IIP21KBHTB5HSBGR1,2,999,227,2756,1,6,1,2,3,1,6
15,33JKGHPFYD0Z9EKCA06RAYLCXDJNM0,A243MVNC6OLKBF,3ZVPAMTJWN9I9IIP21KBHTB5HSBGR1,2,999,228,2881,3,7,0,1,3,7,2
15,33JKGHPFYD0Z9EKCA06RAYLCXDJNM0,A243MVNC6OLKBF,3ZVPAMTJWN9I9IIP21KBHTB5HSBGR1,2,999,229,3777,6,2,0,2,6,7,2
15,33JKGHPFYD0Z9EKCA06RAYLCXDJNM0,A243MVNC6OLKBF,3ZVPAMTJWN9I9IIP21KBHTB5HSBGR1,3,999,230,2617,196,196,true,true,196,196,192
15,33JKGHPFYD0Z9EKCA06RAYLCXDJNM0,A243MVNC6OLKBF,3ZVPAMTJWN9I9IIP21KBHTB5HSBGR1,2,999,231,3258,3,7,0,2,3,1,7
15,33JKGHPFYD0Z9EKCA06RAYLCXDJNM0,A243MVNC6OLKBF,3ZVPAMTJWN9I9IIP21KBHTB5HSBGR1,2,999,232,3603,3,4,0,2,3,2,4
15,33JKGHPFYD0Z9EKCA06RAYLCXDJNM0,A243MVNC6OLKBF,3ZVPAMTJWN9I9IIP21KBHTB5HSBGR1,2,999,233,2339,5,3,0,1,5,3,2
15,33JKGHPFYD0Z9EKCA06RAYLCXDJNM0,A243MVNC6OLKBF,3ZVPAMTJWN9I9IIP21KBHTB5HSBGR1,2,999,234,3282,7,2,1,0,2,7,4
15,33JKGHPFYD0Z9EKCA06RAYLCXDJNM0,A243MVNC6OLKBF,3ZVPAMTJWN9I9IIP21KBHTB5HSBGR1,2,999,235,2195,5,7,2,0,7,1,5
15,33JKGHPFYD0Z9EKCA06RAYLCXDJNM0,A243MVNC6OLKBF,3ZVPAMTJWN9I9IIP21KBHTB5HSBGR1,2,999,236,2990,1,5,1,2,4,1,5
15,33JKGHPFYD0Z9EKCA06RAYLCXDJNM0,A243MVNC6OLKBF,3ZVPAMTJWN9I9IIP21KBHTB5HSBGR1,2,999,237,2892,6,1,0,1,6,1,2
15,33JKGHPFYD0Z9EKCA06RAYLCXDJNM0,A243MVNC6OLKBF,3ZVPAMTJWN9I9IIP21KBHTB5HSBGR1,2,999,238,9130,4,7,0,2,4,6,7
15,33JKGHPFYD0Z9EKCA06RAYLCXDJNM0,A243MVNC6OLKBF,3ZVPAMTJWN9I9IIP21KBHTB5HSBGR1,2,999,239,3254,1,2,2,0,2,7,1
15,33JKGHPFYD0Z9EKCA06RAYLCXDJNM0,A243MVNC6OLKBF,3ZVPAMTJWN9I9IIP21KBHTB5HSBGR1,2,999,240,4153,3,7,0,1,3,7,5
15,33JKGHPFYD0Z9EKCA06RAYLCXDJNM0,A243MVNC6OLKBF,3ZVPAMTJWN9I9IIP21KBHTB5HSBGR1,2,999,241,3056,1,3,0,1,1,3,5
15,33JKGHPFYD0Z9EKCA06RAYLCXDJNM0,A243MVNC6OLKBF,3ZVPAMTJWN9I9IIP21KBHTB5HSBGR1,2,999,242,2764,1,2,2,1,4,2,1
15,33JKGHPFYD0Z9EKCA06RAYLCXDJNM0,A243MVNC6OLKBF,3ZVPAMTJWN9I9IIP21KBHTB5HSBGR1,2,999,243,3753,4,7,0,2,4,1,7
15,33JKGHPFYD0Z9EKCA06RAYLCXDJNM0,A243MVNC6OLKBF,3ZVPAMTJWN9I9IIP21KBHTB5HSBGR1,2,999,244,2758,2,6,2,0,6,4,2
15,33JKGHPFYD0Z9EKCA06RAYLCXDJNM0,A243MVNC6OLKBF,3ZVPAMTJWN9I9IIP21KBHTB5HSBGR1,2,999,245,5300,6,4,2,1,5,4,6
15,33JKGHPFYD0Z9EKCA06RAYLCXDJNM0,A243MVNC6OLKBF,3ZVPAMTJWN9I9IIP21KBHTB5HSBGR1,2,999,246,2433,6,1,0,2,6,4,1
15,33JKGHPFYD0Z9EKCA06RAYLCXDJNM0,A243MVNC6OLKBF,3ZVPAMTJWN9I9IIP21KBHTB5HSBGR1,2,999,247,2700,6,1,2,0,1,5,6
15,33JKGHPFYD0Z9EKCA06RAYLCXDJNM0,A243MVNC6OLKBF,3ZVPAMTJWN9I9IIP21KBHTB5HSBGR1,2,999,248,2445,2,6,0,2,2,5,6
15,33JKGHPFYD0Z9EKCA06RAYLCXDJNM0,A243MVNC6OLKBF,3ZVPAMTJWN9I9IIP21KBHTB5HSBGR1,2,999,249,2433,1,3,0,1,1,3,2
15,33JKGHPFYD0Z9EKCA06RAYLCXDJNM0,A243MVNC6OLKBF,3ZVPAMTJWN9I9IIP21KBHTB5HSBGR1,2,999,250,2469,5,7,0,2,5,2,7
16,3YJ6NA41JCM9BRQ4NI6RYVYQTYOPJT,AHSYA4LVSSKRJ,3WPCIUYH1AESDDLQ40OYBN9QSLSDT1,1,1,7,6681,18,19,0,1,18,19,16
16,3YJ6NA41JCM9BRQ4NI6RYVYQTYOPJT,AHSYA4LVSSKRJ,3WPCIUYH1AESDDLQ40OYBN9QSLSDT1,1,1,15,12372,17,10,2,1,18,10,17
16,3YJ6NA41JCM9BRQ4NI6RYVYQTYOPJT,AHSYA4LVSSKRJ,3WPCIUYH1AESDDLQ40OYBN9QSLSDT1,1,1,16,9732,16,20,0,2,16,12,20
16,3YJ6NA41JCM9BRQ4NI6RYVYQTYOPJT,AHSYA4LVSSKRJ,3WPCIUYH1AESDDLQ40OYBN9QSLSDT1,2,999,18,8075,3,5,0,2,3,7,5
16,3YJ6NA41JCM9BRQ4NI6RYVYQTYOPJT,AHSYA4LVSSKRJ,3WPCIUYH1AESDDLQ40OYBN9QSLSDT1,2,999,19,3940,1,5,1,2,4,1,5
16,3YJ6NA41JCM9BRQ4NI6RYVYQTYOPJT,AHSYA4LVSSKRJ,3WPCIUYH1AESDDLQ40OYBN9QSLSDT1,2,999,20,3656,5,3,2,1,1,3,5
16,3YJ6NA41JCM9BRQ4NI6RYVYQTYOPJT,AHSYA4LVSSKRJ,3WPCIUYH1AESDDLQ40OYBN9QSLSDT1,2,999,21,12213,6,4,0,1,6,4,1
16,3YJ6NA41JCM9BRQ4NI6RYVYQTYOPJT,AHSYA4LVSSKRJ,3WPCIUYH1AESDDLQ40OYBN9QSLSDT1,2,999,22,4276,7,2,1,2,3,7,2
16,3YJ6NA41JCM9BRQ4NI6RYVYQTYOPJT,AHSYA4LVSSKRJ,3WPCIUYH1AESDDLQ40OYBN9QSLSDT1,2,999,23,4817,6,7,0,1,6,7,2
16,3YJ6NA41JCM9BRQ4NI6RYVYQTYOPJT,AHSYA4LVSSKRJ,3WPCIUYH1AESDDLQ40OYBN9QSLSDT1,2,999,24,3411,1,6,0,2,1,5,6
16,3YJ6NA41JCM9BRQ4NI6RYVYQTYOPJT,AHSYA4LVSSKRJ,3WPCIUYH1AESDDLQ40OYBN9QSLSDT1,2,999,25,4376,3,1,1,0,1,3,4
16,3YJ6NA41JCM9BRQ4NI6RYVYQTYOPJT,AHSYA4LVSSKRJ,3WPCIUYH1AESDDLQ40OYBN9QSLSDT1,2,999,26,4409,2,3,1,2,6,2,3
16,3YJ6NA41JCM9BRQ4NI6RYVYQTYOPJT,AHSYA4LVSSKRJ,3WPCIUYH1AESDDLQ40OYBN9QSLSDT1,2,999,27,4847,1,2,0,2,1,3,2
16,3YJ6NA41JCM9BRQ4NI6RYVYQTYOPJT,AHSYA4LVSSKRJ,3WPCIUYH1AESDDLQ40OYBN9QSLSDT1,2,999,28,6224,4,6,1,2,5,4,6
16,3YJ6NA41JCM9BRQ4NI6RYVYQTYOPJT,AHSYA4LVSSKRJ,3WPCIUYH1AESDDLQ40OYBN9QSLSDT1,2,999,29,10034,1,3,1,0,3,1,7
16,3YJ6NA41JCM9BRQ4NI6RYVYQTYOPJT,AHSYA4LVSSKRJ,3WPCIUYH1AESDDLQ40OYBN9QSLSDT1,2,999,30,4533,4,1,0,2,4,2,1
16,3YJ6NA41JCM9BRQ4NI6RYVYQTYOPJT,AHSYA4LVSSKRJ,3WPCIUYH1AESDDLQ40OYBN9QSLSDT1,2,999,31,2840,1,2,1,2,6,1,2
16,3YJ6NA41JCM9BRQ4NI6RYVYQTYOPJT,AHSYA4LVSSKRJ,3WPCIUYH1AESDDLQ40OYBN9QSLSDT1,2,999,32,4707,3,6,0,2,3,1,6
16,3YJ6NA41JCM9BRQ4NI6RYVYQTYOPJT,AHSYA4LVSSKRJ,3WPCIUYH1AESDDLQ40OYBN9QSLSDT1,2,999,33,2589,3,4,0,2,3,2,4
16,3YJ6NA41JCM9BRQ4NI6RYVYQTYOPJT,AHSYA4LVSSKRJ,3WPCIUYH1AESDDLQ40OYBN9QSLSDT1,2,999,34,6402,7,6,0,1,7,6,1
16,3YJ6NA41JCM9BRQ4NI6RYVYQTYOPJT,AHSYA4LVSSKRJ,3WPCIUYH1AESDDLQ40OYBN9QSLSDT1,2,999,35,6973,5,1,1,2,2,5,1
16,3YJ6NA41JCM9BRQ4NI6RYVYQTYOPJT,AHSYA4LVSSKRJ,3WPCIUYH1AESDDLQ40OYBN9QSLSDT1,2,999,36,3527,5,3,0,2,5,6,3
16,3YJ6NA41JCM9BRQ4NI6RYVYQTYOPJT,AHSYA4LVSSKRJ,3WPCIUYH1AESDDLQ40OYBN9QSLSDT1,2,999,37,3607,4,2,1,2,6,4,2
16,3YJ6NA41JCM9BRQ4NI6RYVYQTYOPJT,AHSYA4LVSSKRJ,3WPCIUYH1AESDDLQ40OYBN9QSLSDT1,2,999,38,7978,2,5,2,1,4,5,2
16,3YJ6NA41JCM9BRQ4NI6RYVYQTYOPJT,AHSYA4LVSSKRJ,3WPCIUYH1AESDDLQ40OYBN9QSLSDT1,2,999,39,21063,6,7,1,2,4,6,7
16,3YJ6NA41JCM9BRQ4NI6RYVYQTYOPJT,AHSYA4LVSSKRJ,3WPCIUYH1AESDDLQ40OYBN9QSLSDT1,2,999,40,10759,4,2,2,0,2,7,4
16,3YJ6NA41JCM9BRQ4NI6RYVYQTYOPJT,AHSYA4LVSSKRJ,3WPCIUYH1AESDDLQ40OYBN9QSLSDT1,2,999,41,171636,1,5,1,2,7,1,5
16,3YJ6NA41JCM9BRQ4NI6RYVYQTYOPJT,AHSYA4LVSSKRJ,3WPCIUYH1AESDDLQ40OYBN9QSLSDT1,3,999,42,2398,170,170,true,true,170,170,182
16,3YJ6NA41JCM9BRQ4NI6RYVYQTYOPJT,AHSYA4LVSSKRJ,3WPCIUYH1AESDDLQ40OYBN9QSLSDT1,2,999,43,3324,7,1,1,2,2,7,1
16,3YJ6NA41JCM9BRQ4NI6RYVYQTYOPJT,AHSYA4LVSSKRJ,3WPCIUYH1AESDDLQ40OYBN9QSLSDT1,2,999,44,3441,6,4,2,1,3,4,6
16,3YJ6NA41JCM9BRQ4NI6RYVYQTYOPJT,AHSYA4LVSSKRJ,3WPCIUYH1AESDDLQ40OYBN9QSLSDT1,2,999,45,2278,2,5,0,1,2,5,6
16,3YJ6NA41JCM9BRQ4NI6RYVYQTYOPJT,AHSYA4LVSSKRJ,3WPCIUYH1AESDDLQ40OYBN9QSLSDT1,2,999,46,3087,7,3,0,2,7,4,3
16,3YJ6NA41JCM9BRQ4NI6RYVYQTYOPJT,AHSYA4LVSSKRJ,3WPCIUYH1AESDDLQ40OYBN9QSLSDT1,2,999,47,3204,4,7,2,1,5,7,4
16,3YJ6NA41JCM9BRQ4NI6RYVYQTYOPJT,AHSYA4LVSSKRJ,3WPCIUYH1AESDDLQ40OYBN9QSLSDT1,2,999,48,2825,4,7,0,2,4,1,7
16,3YJ6NA41JCM9BRQ4NI6RYVYQTYOPJT,AHSYA4LVSSKRJ,3WPCIUYH1AESDDLQ40OYBN9QSLSDT1,2,999,49,2429,5,2,0,2,5,3,2
16,3YJ6NA41JCM9BRQ4NI6RYVYQTYOPJT,AHSYA4LVSSKRJ,3WPCIUYH1AESDDLQ40OYBN9QSLSDT1,2,999,50,1566,5,2,0,1,5,2,7
16,3YJ6NA41JCM9BRQ4NI6RYVYQTYOPJT,AHSYA4LVSSKRJ,3WPCIUYH1AESDDLQ40OYBN9QSLSDT1,2,999,51,2186,6,7,0,2,6,3,7
16,3YJ6NA41JCM9BRQ4NI6RYVYQTYOPJT,AHSYA4LVSSKRJ,3WPCIUYH1AESDDLQ40OYBN9QSLSDT1,2,999,52,3832,4,5,1,0,5,4,3
16,3YJ6NA41JCM9BRQ4NI6RYVYQTYOPJT,AHSYA4LVSSKRJ,3WPCIUYH1AESDDLQ40OYBN9QSLSDT1,2,999,53,4091,7,6,0,1,7,6,5
16,3YJ6NA41JCM9BRQ4NI6RYVYQTYOPJT,AHSYA4LVSSKRJ,3WPCIUYH1AESDDLQ40OYBN9QSLSDT1,2,999,98,7713,5,3,0,2,5,6,3
16,3YJ6NA41JCM9BRQ4NI6RYVYQTYOPJT,AHSYA4LVSSKRJ,3WPCIUYH1AESDDLQ40OYBN9QSLSDT1,3,999,99,2282,198,198,true,true,198,198,191
16,3YJ6NA41JCM9BRQ4NI6RYVYQTYOPJT,AHSYA4LVSSKRJ,3WPCIUYH1AESDDLQ40OYBN9QSLSDT1,2,999,100,2338,6,4,0,1,6,4,2
16,3YJ6NA41JCM9BRQ4NI6RYVYQTYOPJT,AHSYA4LVSSKRJ,3WPCIUYH1AESDDLQ40OYBN9QSLSDT1,2,999,101,4129,6,4,1,0,4,6,7
16,3YJ6NA41JCM9BRQ4NI6RYVYQTYOPJT,AHSYA4LVSSKRJ,3WPCIUYH1AESDDLQ40OYBN9QSLSDT1,2,999,102,6875,2,6,0,2,2,5,6
16,3YJ6NA41JCM9BRQ4NI6RYVYQTYOPJT,AHSYA4LVSSKRJ,3WPCIUYH1AESDDLQ40OYBN9QSLSDT1,2,999,103,6128,4,1,0,2,4,2,1
16,3YJ6NA41JCM9BRQ4NI6RYVYQTYOPJT,AHSYA4LVSSKRJ,3WPCIUYH1AESDDLQ40OYBN9QSLSDT1,2,999,104,4018,1,3,1,0,3,1,6
16,3YJ6NA41JCM9BRQ4NI6RYVYQTYOPJT,AHSYA4LVSSKRJ,3WPCIUYH1AESDDLQ40OYBN9QSLSDT1,2,999,105,2602,3,2,0,2,3,7,2
16,3YJ6NA41JCM9BRQ4NI6RYVYQTYOPJT,AHSYA4LVSSKRJ,3WPCIUYH1AESDDLQ40OYBN9QSLSDT1,2,999,106,2961,4,7,1,0,7,4,3
16,3YJ6NA41JCM9BRQ4NI6RYVYQTYOPJT,AHSYA4LVSSKRJ,3WPCIUYH1AESDDLQ40OYBN9QSLSDT1,2,999,107,2485,6,7,0,2,6,3,7
16,3YJ6NA41JCM9BRQ4NI6RYVYQTYOPJT,AHSYA4LVSSKRJ,3WPCIUYH1AESDDLQ40OYBN9QSLSDT1,2,999,108,2516,6,7,0,1,6,7,2
16,3YJ6NA41JCM9BRQ4NI6RYVYQTYOPJT,AHSYA4LVSSKRJ,3WPCIUYH1AESDDLQ40OYBN9QSLSDT1,2,999,109,4110,1,3,1,0,3,1,7
16,3YJ6NA41JCM9BRQ4NI6RYVYQTYOPJT,AHSYA4LVSSKRJ,3WPCIUYH1AESDDLQ40OYBN9QSLSDT1,2,999,110,2581,5,1,2,1,4,1,5
16,3YJ6NA41JCM9BRQ4NI6RYVYQTYOPJT,AHSYA4LVSSKRJ,3WPCIUYH1AESDDLQ40OYBN9QSLSDT1,2,999,111,20426,5,1,1,0,1,5,6
16,3YJ6NA41JCM9BRQ4NI6RYVYQTYOPJT,AHSYA4LVSSKRJ,3WPCIUYH1AESDDLQ40OYBN9QSLSDT1,2,999,112,3413,7,4,1,2,5,7,4
16,3YJ6NA41JCM9BRQ4NI6RYVYQTYOPJT,AHSYA4LVSSKRJ,3WPCIUYH1AESDDLQ40OYBN9QSLSDT1,2,999,113,4183,1,7,2,0,7,6,1
16,3YJ6NA41JCM9BRQ4NI6RYVYQTYOPJT,AHSYA4LVSSKRJ,3WPCIUYH1AESDDLQ40OYBN9QSLSDT1,2,999,114,4705,7,1,1,2,2,7,1
16,3YJ6NA41JCM9BRQ4NI6RYVYQTYOPJT,AHSYA4LVSSKRJ,3WPCIUYH1AESDDLQ40OYBN9QSLSDT1,2,999,115,2570,5,3,0,2,5,4,3
16,3YJ6NA41JCM9BRQ4NI6RYVYQTYOPJT,AHSYA4LVSSKRJ,3WPCIUYH1AESDDLQ40OYBN9QSLSDT1,2,999,116,10462,4,6,1,0,6,4,1
16,3YJ6NA41JCM9BRQ4NI6RYVYQTYOPJT,AHSYA4LVSSKRJ,3WPCIUYH1AESDDLQ40OYBN9QSLSDT1,2,999,117,2962,5,2,0,1,5,2,7
16,3YJ6NA41JCM9BRQ4NI6RYVYQTYOPJT,AHSYA4LVSSKRJ,3WPCIUYH1AESDDLQ40OYBN9QSLSDT1,2,999,118,3380,4,6,1,2,3,4,6
16,3YJ6NA41JCM9BRQ4NI6RYVYQTYOPJT,AHSYA4LVSSKRJ,3WPCIUYH1AESDDLQ40OYBN9QSLSDT1,2,999,119,3368,3,5,0,2,3,7,5
16,3YJ6NA41JCM9BRQ4NI6RYVYQTYOPJT,AHSYA4LVSSKRJ,3WPCIUYH1AESDDLQ40OYBN9QSLSDT1,2,999,120,2786,4,6,1,2,5,4,6
16,3YJ6NA41JCM9BRQ4NI6RYVYQTYOPJT,AHSYA4LVSSKRJ,3WPCIUYH1AESDDLQ40OYBN9QSLSDT1,2,999,121,3790,7,5,0,2,7,6,5
16,3YJ6NA41JCM9BRQ4NI6RYVYQTYOPJT,AHSYA4LVSSKRJ,3WPCIUYH1AESDDLQ40OYBN9QSLSDT1,2,999,122,3965,5,2,1,2,4,5,2
16,3YJ6NA41JCM9BRQ4NI6RYVYQTYOPJT,AHSYA4LVSSKRJ,3WPCIUYH1AESDDLQ40OYBN9QSLSDT1,2,999,123,3142,2,3,1,2,6,2,3
16,3YJ6NA41JCM9BRQ4NI6RYVYQTYOPJT,AHSYA4LVSSKRJ,3WPCIUYH1AESDDLQ40OYBN9QSLSDT1,2,999,124,4069,5,1,1,2,2,5,1
16,3YJ6NA41JCM9BRQ4NI6RYVYQTYOPJT,AHSYA4LVSSKRJ,3WPCIUYH1AESDDLQ40OYBN9QSLSDT1,2,999,125,5652,1,3,0,1,1,3,4
16,3YJ6NA41JCM9BRQ4NI6RYVYQTYOPJT,AHSYA4LVSSKRJ,3WPCIUYH1AESDDLQ40OYBN9QSLSDT1,2,999,126,2642,2,3,1,0,3,2,4
16,3YJ6NA41JCM9BRQ4NI6RYVYQTYOPJT,AHSYA4LVSSKRJ,3WPCIUYH1AESDDLQ40OYBN9QSLSDT1,2,999,127,5807,1,5,1,2,7,1,5
16,3YJ6NA41JCM9BRQ4NI6RYVYQTYOPJT,AHSYA4LVSSKRJ,3WPCIUYH1AESDDLQ40OYBN9QSLSDT1,2,999,128,2743,5,3,0,1,5,3,2
16,3YJ6NA41JCM9BRQ4NI6RYVYQTYOPJT,AHSYA4LVSSKRJ,3WPCIUYH1AESDDLQ40OYBN9QSLSDT1,2,999,129,3415,3,5,1,2,1,3,5
16,3YJ6NA41JCM9BRQ4NI6RYVYQTYOPJT,AHSYA4LVSSKRJ,3WPCIUYH1AESDDLQ40OYBN9QSLSDT1,2,999,130,4864,7,1,2,1,4,1,7
16,3YJ6NA41JCM9BRQ4NI6RYVYQTYOPJT,AHSYA4LVSSKRJ,3WPCIUYH1AESDDLQ40OYBN9QSLSDT1,2,999,131,3778,1,2,1,2,6,1,2
16,3YJ6NA41JCM9BRQ4NI6RYVYQTYOPJT,AHSYA4LVSSKRJ,3WPCIUYH1AESDDLQ40OYBN9QSLSDT1,2,999,132,9664,1,2,0,2,1,3,2
16,3YJ6NA41JCM9BRQ4NI6RYVYQTYOPJT,AHSYA4LVSSKRJ,3WPCIUYH1AESDDLQ40OYBN9QSLSDT1,2,999,133,2679,7,2,1,0,2,7,4
16,3YJ6NA41JCM9BRQ4NI6RYVYQTYOPJT,AHSYA4LVSSKRJ,3WPCIUYH1AESDDLQ40OYBN9QSLSDT1,2,999,179,22740,7,6,0,1,7,6,5
16,3YJ6NA41JCM9BRQ4NI6RYVYQTYOPJT,AHSYA4LVSSKRJ,3WPCIUYH1AESDDLQ40OYBN9QSLSDT1,2,999,180,3160,7,2,1,2,6,7,2
16,3YJ6NA41JCM9BRQ4NI6RYVYQTYOPJT,AHSYA4LVSSKRJ,3WPCIUYH1AESDDLQ40OYBN9QSLSDT1,2,999,181,7879,7,2,1,0,2,7,4
16,3YJ6NA41JCM9BRQ4NI6RYVYQTYOPJT,AHSYA4LVSSKRJ,3WPCIUYH1AESDDLQ40OYBN9QSLSDT1,2,999,182,3132,2,1,0,2,2,5,1
16,3YJ6NA41JCM9BRQ4NI6RYVYQTYOPJT,AHSYA4LVSSKRJ,3WPCIUYH1AESDDLQ40OYBN9QSLSDT1,2,999,183,2232,3,1,1,0,1,3,4
16,3YJ6NA41JCM9BRQ4NI6RYVYQTYOPJT,AHSYA4LVSSKRJ,3WPCIUYH1AESDDLQ40OYBN9QSLSDT1,2,999,184,3358,2,5,2,1,4,5,2
16,3YJ6NA41JCM9BRQ4NI6RYVYQTYOPJT,AHSYA4LVSSKRJ,3WPCIUYH1AESDDLQ40OYBN9QSLSDT1,2,999,185,3137,4,1,1,2,6,4,1
16,3YJ6NA41JCM9BRQ4NI6RYVYQTYOPJT,AHSYA4LVSSKRJ,3WPCIUYH1AESDDLQ40OYBN9QSLSDT1,2,999,186,5038,4,7,0,2,4,6,7
16,3YJ6NA41JCM9BRQ4NI6RYVYQTYOPJT,AHSYA4LVSSKRJ,3WPCIUYH1AESDDLQ40OYBN9QSLSDT1,2,999,187,4226,1,5,1,2,4,1,5
16,3YJ6NA41JCM9BRQ4NI6RYVYQTYOPJT,AHSYA4LVSSKRJ,3WPCIUYH1AESDDLQ40OYBN9QSLSDT1,2,999,188,9466,1,7,2,0,7,6,1
16,3YJ6NA41JCM9BRQ4NI6RYVYQTYOPJT,AHSYA4LVSSKRJ,3WPCIUYH1AESDDLQ40OYBN9QSLSDT1,2,999,189,2952,3,2,0,2,3,7,2
16,3YJ6NA41JCM9BRQ4NI6RYVYQTYOPJT,AHSYA4LVSSKRJ,3WPCIUYH1AESDDLQ40OYBN9QSLSDT1,2,999,190,2556,2,1,0,2,2,7,1
16,3YJ6NA41JCM9BRQ4NI6RYVYQTYOPJT,AHSYA4LVSSKRJ,3WPCIUYH1AESDDLQ40OYBN9QSLSDT1,2,999,191,2614,7,5,1,0,5,7,4
16,3YJ6NA41JCM9BRQ4NI6RYVYQTYOPJT,AHSYA4LVSSKRJ,3WPCIUYH1AESDDLQ40OYBN9QSLSDT1,2,999,192,2670,1,2,2,1,4,2,1
16,3YJ6NA41JCM9BRQ4NI6RYVYQTYOPJT,AHSYA4LVSSKRJ,3WPCIUYH1AESDDLQ40OYBN9QSLSDT1,2,999,193,3176,3,1,0,1,3,1,7
16,3YJ6NA41JCM9BRQ4NI6RYVYQTYOPJT,AHSYA4LVSSKRJ,3WPCIUYH1AESDDLQ40OYBN9QSLSDT1,2,999,194,2788,2,5,0,1,2,5,6
16,3YJ6NA41JCM9BRQ4NI6RYVYQTYOPJT,AHSYA4LVSSKRJ,3WPCIUYH1AESDDLQ40OYBN9QSLSDT1,2,999,195,5262,5,2,0,1,5,2,7
16,3YJ6NA41JCM9BRQ4NI6RYVYQTYOPJT,AHSYA4LVSSKRJ,3WPCIUYH1AESDDLQ40OYBN9QSLSDT1,2,999,196,4228,1,5,0,1,1,5,6
16,3YJ6NA41JCM9BRQ4NI6RYVYQTYOPJT,AHSYA4LVSSKRJ,3WPCIUYH1AESDDLQ40OYBN9QSLSDT1,2,999,197,11389,4,1,0,1,4,1,7
16,3YJ6NA41JCM9BRQ4NI6RYVYQTYOPJT,AHSYA4LVSSKRJ,3WPCIUYH1AESDDLQ40OYBN9QSLSDT1,2,999,198,10153,3,7,2,0,7,4,3
16,3YJ6NA41JCM9BRQ4NI6RYVYQTYOPJT,AHSYA4LVSSKRJ,3WPCIUYH1AESDDLQ40OYBN9QSLSDT1,2,999,199,181123,1,7,1,0,7,1,5
16,3YJ6NA41JCM9BRQ4NI6RYVYQTYOPJT,AHSYA4LVSSKRJ,3WPCIUYH1AESDDLQ40OYBN9QSLSDT1,2,999,200,3858,2,3,1,2,6,2,3
16,3YJ6NA41JCM9BRQ4NI6RYVYQTYOPJT,AHSYA4LVSSKRJ,3WPCIUYH1AESDDLQ40OYBN9QSLSDT1,2,999,201,2154,1,2,1,2,6,1,2
16,3YJ6NA41JCM9BRQ4NI6RYVYQTYOPJT,AHSYA4LVSSKRJ,3WPCIUYH1AESDDLQ40OYBN9QSLSDT1,2,999,202,3176,3,4,0,1,3,4,6
16,3YJ6NA41JCM9BRQ4NI6RYVYQTYOPJT,AHSYA4LVSSKRJ,3WPCIUYH1AESDDLQ40OYBN9QSLSDT1,2,999,203,5018,4,2,1,2,6,4,2
16,3YJ6NA41JCM9BRQ4NI6RYVYQTYOPJT,AHSYA4LVSSKRJ,3WPCIUYH1AESDDLQ40OYBN9QSLSDT1,2,999,204,4969,5,3,0,1,5,3,2
16,3YJ6NA41JCM9BRQ4NI6RYVYQTYOPJT,AHSYA4LVSSKRJ,3WPCIUYH1AESDDLQ40OYBN9QSLSDT1,2,999,205,2603,5,3,0,2,5,4,3
16,3YJ6NA41JCM9BRQ4NI6RYVYQTYOPJT,AHSYA4LVSSKRJ,3WPCIUYH1AESDDLQ40OYBN9QSLSDT1,3,999,206,1623,174,174,true,true,174,174,164
16,3YJ6NA41JCM9BRQ4NI6RYVYQTYOPJT,AHSYA4LVSSKRJ,3WPCIUYH1AESDDLQ40OYBN9QSLSDT1,2,999,207,4729,2,4,1,2,3,2,4
16,3YJ6NA41JCM9BRQ4NI6RYVYQTYOPJT,AHSYA4LVSSKRJ,3WPCIUYH1AESDDLQ40OYBN9QSLSDT1,2,999,208,2135,3,5,0,2,3,7,5
16,3YJ6NA41JCM9BRQ4NI6RYVYQTYOPJT,AHSYA4LVSSKRJ,3WPCIUYH1AESDDLQ40OYBN9QSLSDT1,2,999,209,3983,6,7,0,2,6,3,7
16,3YJ6NA41JCM9BRQ4NI6RYVYQTYOPJT,AHSYA4LVSSKRJ,3WPCIUYH1AESDDLQ40OYBN9QSLSDT1,2,999,210,3548,5,3,2,1,1,3,5
16,3YJ6NA41JCM9BRQ4NI6RYVYQTYOPJT,AHSYA4LVSSKRJ,3WPCIUYH1AESDDLQ40OYBN9QSLSDT1,2,999,211,1949,5,3,0,2,5,6,3
16,3YJ6NA41JCM9BRQ4NI6RYVYQTYOPJT,AHSYA4LVSSKRJ,3WPCIUYH1AESDDLQ40OYBN9QSLSDT1,2,999,212,3204,3,1,0,1,3,1,6
16,3YJ6NA41JCM9BRQ4NI6RYVYQTYOPJT,AHSYA4LVSSKRJ,3WPCIUYH1AESDDLQ40OYBN9QSLSDT1,2,999,213,2446,2,1,2,0,1,3,2
16,3YJ6NA41JCM9BRQ4NI6RYVYQTYOPJT,AHSYA4LVSSKRJ,3WPCIUYH1AESDDLQ40OYBN9QSLSDT1,2,999,214,11795,4,6,1,2,5,4,6
16,3YJ6NA41JCM9BRQ4NI6RYVYQTYOPJT,AHSYA4LVSSKRJ,3WPCIUYH1AESDDLQ40OYBN9QSLSDT1,2,999,215,6251,4,6,0,1,4,6,7
16,3YJ6NA41JCM9BRQ4NI6RYVYQTYOPJT,AHSYA4LVSSKRJ,3WPCIUYH1AESDDLQ40OYBN9QSLSDT1,2,999,216,5175,5,7,0,2,5,2,7
16,3YJ6NA41JCM9BRQ4NI6RYVYQTYOPJT,AHSYA4LVSSKRJ,3WPCIUYH1AESDDLQ40OYBN9QSLSDT1,2,999,217,2525,2,1,2,1,6,1,2
16,3YJ6NA41JCM9BRQ4NI6RYVYQTYOPJT,AHSYA4LVSSKRJ,3WPCIUYH1AESDDLQ40OYBN9QSLSDT1,2,999,218,2938,7,3,0,2,7,4,3
16,3YJ6NA41JCM9BRQ4NI6RYVYQTYOPJT,AHSYA4LVSSKRJ,3WPCIUYH1AESDDLQ40OYBN9QSLSDT1,2,999,219,8980,7,1,0,2,7,6,1
16,3YJ6NA41JCM9BRQ4NI6RYVYQTYOPJT,AHSYA4LVSSKRJ,3WPCIUYH1AESDDLQ40OYBN9QSLSDT1,2,999,220,8722,4,1,0,1,4,1,5
16,3YJ6NA41JCM9BRQ4NI6RYVYQTYOPJT,AHSYA4LVSSKRJ,3WPCIUYH1AESDDLQ40OYBN9QSLSDT1,2,999,221,3229,7,5,0,2,7,1,5
16,3YJ6NA41JCM9BRQ4NI6RYVYQTYOPJT,AHSYA4LVSSKRJ,3WPCIUYH1AESDDLQ40OYBN9QSLSDT1,2,999,222,46450,3,5,0,2,3,7,5
16,3YJ6NA41JCM9BRQ4NI6RYVYQTYOPJT,AHSYA4LVSSKRJ,3WPCIUYH1AESDDLQ40OYBN9QSLSDT1,2,999,223,5557,4,1,1,2,6,4,1
16,3YJ6NA41JCM9BRQ4NI6RYVYQTYOPJT,AHSYA4LVSSKRJ,3WPCIUYH1AESDDLQ40OYBN9QSLSDT1,2,999,224,3381,2,4,0,2,2,7,4
16,3YJ6NA41JCM9BRQ4NI6RYVYQTYOPJT,AHSYA4LVSSKRJ,3WPCIUYH1AESDDLQ40OYBN9QSLSDT1,2,999,225,4681,3,5,1,2,1,3,5
16,3YJ6NA41JCM9BRQ4NI6RYVYQTYOPJT,AHSYA4LVSSKRJ,3WPCIUYH1AESDDLQ40OYBN9QSLSDT1,2,999,226,4647,2,7,2,1,6,7,2
16,3YJ6NA41JCM9BRQ4NI6RYVYQTYOPJT,AHSYA4LVSSKRJ,3WPCIUYH1AESDDLQ40OYBN9QSLSDT1,2,999,227,4590,6,7,0,2,6,3,7
16,3YJ6NA41JCM9BRQ4NI6RYVYQTYOPJT,AHSYA4LVSSKRJ,3WPCIUYH1AESDDLQ40OYBN9QSLSDT1,2,999,228,4044,2,1,0,2,2,5,1
16,3YJ6NA41JCM9BRQ4NI6RYVYQTYOPJT,AHSYA4LVSSKRJ,3WPCIUYH1AESDDLQ40OYBN9QSLSDT1,2,999,229,2302,5,3,0,2,5,4,3
16,3YJ6NA41JCM9BRQ4NI6RYVYQTYOPJT,AHSYA4LVSSKRJ,3WPCIUYH1AESDDLQ40OYBN9QSLSDT1,2,999,230,3599,4,6,1,2,5,4,6
16,3YJ6NA41JCM9BRQ4NI6RYVYQTYOPJT,AHSYA4LVSSKRJ,3WPCIUYH1AESDDLQ40OYBN9QSLSDT1,3,999,231,19475,200,200,true,true,200,200,190
16,3YJ6NA41JCM9BRQ4NI6RYVYQTYOPJT,AHSYA4LVSSKRJ,3WPCIUYH1AESDDLQ40OYBN9QSLSDT1,2,999,232,5304,4,6,1,2,3,4,6
16,3YJ6NA41JCM9BRQ4NI6RYVYQTYOPJT,AHSYA4LVSSKRJ,3WPCIUYH1AESDDLQ40OYBN9QSLSDT1,2,999,233,4376,7,2,1,2,3,7,2
16,3YJ6NA41JCM9BRQ4NI6RYVYQTYOPJT,AHSYA4LVSSKRJ,3WPCIUYH1AESDDLQ40OYBN9QSLSDT1,2,999,234,2773,2,1,0,2,2,7,1
16,3YJ6NA41JCM9BRQ4NI6RYVYQTYOPJT,AHSYA4LVSSKRJ,3WPCIUYH1AESDDLQ40OYBN9QSLSDT1,2,999,235,5438,7,5,0,2,7,6,5
16,3YJ6NA41JCM9BRQ4NI6RYVYQTYOPJT,AHSYA4LVSSKRJ,3WPCIUYH1AESDDLQ40OYBN9QSLSDT1,2,999,236,15051,7,1,2,1,3,1,7
16,3YJ6NA41JCM9BRQ4NI6RYVYQTYOPJT,AHSYA4LVSSKRJ,3WPCIUYH1AESDDLQ40OYBN9QSLSDT1,2,999,237,9939,5,2,1,2,4,5,2
16,3YJ6NA41JCM9BRQ4NI6RYVYQTYOPJT,AHSYA4LVSSKRJ,3WPCIUYH1AESDDLQ40OYBN9QSLSDT1,2,999,238,4246,1,5,0,1,1,5,6
16,3YJ6NA41JCM9BRQ4NI6RYVYQTYOPJT,AHSYA4LVSSKRJ,3WPCIUYH1AESDDLQ40OYBN9QSLSDT1,2,999,239,2559,7,5,1,0,5,7,4
16,3YJ6NA41JCM9BRQ4NI6RYVYQTYOPJT,AHSYA4LVSSKRJ,3WPCIUYH1AESDDLQ40OYBN9QSLSDT1,2,999,240,2223,1,2,2,1,4,2,1
16,3YJ6NA41JCM9BRQ4NI6RYVYQTYOPJT,AHSYA4LVSSKRJ,3WPCIUYH1AESDDLQ40OYBN9QSLSDT1,2,999,241,2637,3,1,0,1,3,1,6
16,3YJ6NA41JCM9BRQ4NI6RYVYQTYOPJT,AHSYA4LVSSKRJ,3WPCIUYH1AESDDLQ40OYBN9QSLSDT1,2,999,242,3168,7,1,2,1,4,1,7
16,3YJ6NA41JCM9BRQ4NI6RYVYQTYOPJT,AHSYA4LVSSKRJ,3WPCIUYH1AESDDLQ40OYBN9QSLSDT1,2,999,243,2588,5,3,0,2,5,6,3
16,3YJ6NA41JCM9BRQ4NI6RYVYQTYOPJT,AHSYA4LVSSKRJ,3WPCIUYH1AESDDLQ40OYBN9QSLSDT1,2,999,244,3789,1,3,0,1,1,3,4
16,3YJ6NA41JCM9BRQ4NI6RYVYQTYOPJT,AHSYA4LVSSKRJ,3WPCIUYH1AESDDLQ40OYBN9QSLSDT1,2,999,245,3584,4,2,1,2,6,4,2
16,3YJ6NA41JCM9BRQ4NI6RYVYQTYOPJT,AHSYA4LVSSKRJ,3WPCIUYH1AESDDLQ40OYBN9QSLSDT1,2,999,246,3765,3,2,2,1,6,2,3
16,3YJ6NA41JCM9BRQ4NI6RYVYQTYOPJT,AHSYA4LVSSKRJ,3WPCIUYH1AESDDLQ40OYBN9QSLSDT1,2,999,247,2904,5,3,0,1,5,3,2
16,3YJ6NA41JCM9BRQ4NI6RYVYQTYOPJT,AHSYA4LVSSKRJ,3WPCIUYH1AESDDLQ40OYBN9QSLSDT1,2,999,248,3233,3,2,0,1,3,2,4
16,3YJ6NA41JCM9BRQ4NI6RYVYQTYOPJT,AHSYA4LVSSKRJ,3WPCIUYH1AESDDLQ40OYBN9QSLSDT1,2,999,249,16322,1,2,0,2,1,3,2
16,3YJ6NA41JCM9BRQ4NI6RYVYQTYOPJT,AHSYA4LVSSKRJ,3WPCIUYH1AESDDLQ40OYBN9QSLSDT1,2,999,250,3297,2,5,0,1,2,5,6
17,3COPXFW7XCI4MBWM5363ZAY38NOPKS,AJFCCRG1TM3WT,3ZVPAMTJWN9I9IIP21KBHTB5HSBGR1,1,1,9,9613,19,18,0,1,18,19,16
17,3COPXFW7XCI4MBWM5363ZAY38NOPKS,AJFCCRG1TM3WT,3ZVPAMTJWN9I9IIP21KBHTB5HSBGR1,1,1,17,4146,17,10,2,1,18,10,17
17,3COPXFW7XCI4MBWM5363ZAY38NOPKS,AJFCCRG1TM3WT,3ZVPAMTJWN9I9IIP21KBHTB5HSBGR1,1,1,18,7064,12,20,1,2,16,12,20
17,3COPXFW7XCI4MBWM5363ZAY38NOPKS,AJFCCRG1TM3WT,3ZVPAMTJWN9I9IIP21KBHTB5HSBGR1,2,999,20,3829,4,3,2,1,1,3,4
17,3COPXFW7XCI4MBWM5363ZAY38NOPKS,AJFCCRG1TM3WT,3ZVPAMTJWN9I9IIP21KBHTB5HSBGR1,2,999,21,3335,2,1,2,0,1,3,2
17,3COPXFW7XCI4MBWM5363ZAY38NOPKS,AJFCCRG1TM3WT,3ZVPAMTJWN9I9IIP21KBHTB5HSBGR1,2,999,22,3569,6,5,2,0,5,4,6
17,3COPXFW7XCI4MBWM5363ZAY38NOPKS,AJFCCRG1TM3WT,3ZVPAMTJWN9I9IIP21KBHTB5HSBGR1,2,999,23,2422,1,6,2,0,6,4,1
17,3COPXFW7XCI4MBWM5363ZAY38NOPKS,AJFCCRG1TM3WT,3ZVPAMTJWN9I9IIP21KBHTB5HSBGR1,2,999,24,2844,1,2,2,0,2,7,1
17,3COPXFW7XCI4MBWM5363ZAY38NOPKS,AJFCCRG1TM3WT,3ZVPAMTJWN9I9IIP21KBHTB5HSBGR1,2,999,25,2538,1,5,0,2,1,3,5
17,3COPXFW7XCI4MBWM5363ZAY38NOPKS,AJFCCRG1TM3WT,3ZVPAMTJWN9I9IIP21KBHTB5HSBGR1,2,999,26,3182,3,7,1,2,6,3,7
17,3COPXFW7XCI4MBWM5363ZAY38NOPKS,AJFCCRG1TM3WT,3ZVPAMTJWN9I9IIP21KBHTB5HSBGR1,2,999,27,5330,3,7,2,0,7,4,3
17,3COPXFW7XCI4MBWM5363ZAY38NOPKS,AJFCCRG1TM3WT,3ZVPAMTJWN9I9IIP21KBHTB5HSBGR1,2,999,28,2281,1,5,1,2,7,1,5
17,3COPXFW7XCI4MBWM5363ZAY38NOPKS,AJFCCRG1TM3WT,3ZVPAMTJWN9I9IIP21KBHTB5HSBGR1,2,999,29,2717,6,5,1,0,5,6,3
17,3COPXFW7XCI4MBWM5363ZAY38NOPKS,AJFCCRG1TM3WT,3ZVPAMTJWN9I9IIP21KBHTB5HSBGR1,2,999,30,2716,2,5,2,0,5,3,2
17,3COPXFW7XCI4MBWM5363ZAY38NOPKS,AJFCCRG1TM3WT,3ZVPAMTJWN9I9IIP21KBHTB5HSBGR1,2,999,31,2562,7,4,2,0,4,1,7
17,3COPXFW7XCI4MBWM5363ZAY38NOPKS,AJFCCRG1TM3WT,3ZVPAMTJWN9I9IIP21KBHTB5HSBGR1,2,999,32,2501,4,3,1,0,3,4,6
17,3COPXFW7XCI4MBWM5363ZAY38NOPKS,AJFCCRG1TM3WT,3ZVPAMTJWN9I9IIP21KBHTB5HSBGR1,2,999,33,2989,1,6,1,2,3,1,6
17,3COPXFW7XCI4MBWM5363ZAY38NOPKS,AJFCCRG1TM3WT,3ZVPAMTJWN9I9IIP21KBHTB5HSBGR1,2,999,34,2599,2,1,1,2,4,2,1
17,3COPXFW7XCI4MBWM5363ZAY38NOPKS,AJFCCRG1TM3WT,3ZVPAMTJWN9I9IIP21KBHTB5HSBGR1,2,999,35,3200,4,7,2,1,5,7,4
17,3COPXFW7XCI4MBWM5363ZAY38NOPKS,AJFCCRG1TM3WT,3ZVPAMTJWN9I9IIP21KBHTB5HSBGR1,2,999,36,2459,7,4,1,2,2,7,4
17,3COPXFW7XCI4MBWM5363ZAY38NOPKS,AJFCCRG1TM3WT,3ZVPAMTJWN9I9IIP21KBHTB5HSBGR1,2,999,37,2939,2,6,2,0,6,7,2
17,3COPXFW7XCI4MBWM5363ZAY38NOPKS,AJFCCRG1TM3WT,3ZVPAMTJWN9I9IIP21KBHTB5HSBGR1,2,999,38,2636,1,6,0,2,1,5,6
17,3COPXFW7XCI4MBWM5363ZAY38NOPKS,AJFCCRG1TM3WT,3ZVPAMTJWN9I9IIP21KBHTB5HSBGR1,2,999,39,2377,6,1,1,2,7,6,1
17,3COPXFW7XCI4MBWM5363ZAY38NOPKS,AJFCCRG1TM3WT,3ZVPAMTJWN9I9IIP21KBHTB5HSBGR1,2,999,40,2473,7,3,1,0,3,7,5
17,3COPXFW7XCI4MBWM5363ZAY38NOPKS,AJFCCRG1TM3WT,3ZVPAMTJWN9I9IIP21KBHTB5HSBGR1,2,999,41,3118,1,2,2,0,2,5,1
17,3COPXFW7XCI4MBWM5363ZAY38NOPKS,AJFCCRG1TM3WT,3ZVPAMTJWN9I9IIP21KBHTB5HSBGR1,2,999,42,2480,1,5,1,2,4,1,5
17,3COPXFW7XCI4MBWM5363ZAY38NOPKS,AJFCCRG1TM3WT,3ZVPAMTJWN9I9IIP21KBHTB5HSBGR1,2,999,43,2960,6,2,0,2,6,4,2
17,3COPXFW7XCI4MBWM5363ZAY38NOPKS,AJFCCRG1TM3WT,3ZVPAMTJWN9I9IIP21KBHTB5HSBGR1,3,999,44,2366,183,183,true,true,183,183,195
17,3COPXFW7XCI4MBWM5363ZAY38NOPKS,AJFCCRG1TM3WT,3ZVPAMTJWN9I9IIP21KBHTB5HSBGR1,2,999,45,2631,2,6,0,2,2,5,6
17,3COPXFW7XCI4MBWM5363ZAY38NOPKS,AJFCCRG1TM3WT,3ZVPAMTJWN9I9IIP21KBHTB5HSBGR1,2,999,46,3286,3,7,0,1,3,7,2
17,3COPXFW7XCI4MBWM5363ZAY38NOPKS,AJFCCRG1TM3WT,3ZVPAMTJWN9I9IIP21KBHTB5HSBGR1,2,999,47,2582,5,2,1,2,4,5,2
17,3COPXFW7XCI4MBWM5363ZAY38NOPKS,AJFCCRG1TM3WT,3ZVPAMTJWN9I9IIP21KBHTB5HSBGR1,2,999,48,2040,4,3,2,0,3,2,4
17,3COPXFW7XCI4MBWM5363ZAY38NOPKS,AJFCCRG1TM3WT,3ZVPAMTJWN9I9IIP21KBHTB5HSBGR1,2,999,49,1994,5,2,0,1,5,2,7
17,3COPXFW7XCI4MBWM5363ZAY38NOPKS,AJFCCRG1TM3WT,3ZVPAMTJWN9I9IIP21KBHTB5HSBGR1,2,999,50,2322,6,5,1,2,7,6,5
17,3COPXFW7XCI4MBWM5363ZAY38NOPKS,AJFCCRG1TM3WT,3ZVPAMTJWN9I9IIP21KBHTB5HSBGR1,2,999,51,1823,7,4,2,0,4,6,7
17,3COPXFW7XCI4MBWM5363ZAY38NOPKS,AJFCCRG1TM3WT,3ZVPAMTJWN9I9IIP21KBHTB5HSBGR1,2,999,52,2586,4,3,1,2,5,4,3
17,3COPXFW7XCI4MBWM5363ZAY38NOPKS,AJFCCRG1TM3WT,3ZVPAMTJWN9I9IIP21KBHTB5HSBGR1,2,999,53,2977,1,6,1,0,6,1,2
17,3COPXFW7XCI4MBWM5363ZAY38NOPKS,AJFCCRG1TM3WT,3ZVPAMTJWN9I9IIP21KBHTB5HSBGR1,2,999,54,2119,6,2,0,1,6,2,3
17,3COPXFW7XCI4MBWM5363ZAY38NOPKS,AJFCCRG1TM3WT,3ZVPAMTJWN9I9IIP21KBHTB5HSBGR1,2,999,55,2162,3,7,0,2,3,1,7
17,3COPXFW7XCI4MBWM5363ZAY38NOPKS,AJFCCRG1TM3WT,3ZVPAMTJWN9I9IIP21KBHTB5HSBGR1,2,999,100,3503,6,5,1,0,5,6,3
17,3COPXFW7XCI4MBWM5363ZAY38NOPKS,AJFCCRG1TM3WT,3ZVPAMTJWN9I9IIP21KBHTB5HSBGR1,2,999,101,1740,3,7,0,2,3,1,7
17,3COPXFW7XCI4MBWM5363ZAY38NOPKS,AJFCCRG1TM3WT,3ZVPAMTJWN9I9IIP21KBHTB5HSBGR1,2,999,102,2819,1,2,2,0,2,5,1
17,3COPXFW7XCI4MBWM5363ZAY38NOPKS,AJFCCRG1TM3WT,3ZVPAMTJWN9I9IIP21KBHTB5HSBGR1,2,999,103,1919,4,7,0,2,4,6,7
17,3COPXFW7XCI4MBWM5363ZAY38NOPKS,AJFCCRG1TM3WT,3ZVPAMTJWN9I9IIP21KBHTB5HSBGR1,2,999,104,2330,5,6,2,1,7,6,5
17,3COPXFW7XCI4MBWM5363ZAY38NOPKS,AJFCCRG1TM3WT,3ZVPAMTJWN9I9IIP21KBHTB5HSBGR1,2,999,105,2388,6,2,0,2,6,7,2
17,3COPXFW7XCI4MBWM5363ZAY38NOPKS,AJFCCRG1TM3WT,3ZVPAMTJWN9I9IIP21KBHTB5HSBGR1,3,999,106,2145,142,142,true,true,142,142,198
17,3COPXFW7XCI4MBWM5363ZAY38NOPKS,AJFCCRG1TM3WT,3ZVPAMTJWN9I9IIP21KBHTB5HSBGR1,2,999,107,2130,6,1,1,2,7,6,1
17,3COPXFW7XCI4MBWM5363ZAY38NOPKS,AJFCCRG1TM3WT,3ZVPAMTJWN9I9IIP21KBHTB5HSBGR1,2,999,108,2280,6,2,0,1,6,2,3
17,3COPXFW7XCI4MBWM5363ZAY38NOPKS,AJFCCRG1TM3WT,3ZVPAMTJWN9I9IIP21KBHTB5HSBGR1,2,999,109,2351,3,4,1,2,1,3,4
17,3COPXFW7XCI4MBWM5363ZAY38NOPKS,AJFCCRG1TM3WT,3ZVPAMTJWN9I9IIP21KBHTB5HSBGR1,2,999,110,3217,1,5,1,2,4,1,5
17,3COPXFW7XCI4MBWM5363ZAY38NOPKS,AJFCCRG1TM3WT,3ZVPAMTJWN9I9IIP21KBHTB5HSBGR1,2,999,111,8939,1,6,1,2,3,1,6
17,3COPXFW7XCI4MBWM5363ZAY38NOPKS,AJFCCRG1TM3WT,3ZVPAMTJWN9I9IIP21KBHTB5HSBGR1,2,999,112,2993,1,5,1,2,7,1,5
17,3COPXFW7XCI4MBWM5363ZAY38NOPKS,AJFCCRG1TM3WT,3ZVPAMTJWN9I9IIP21KBHTB5HSBGR1,2,999,113,3929,6,1,0,2,6,4,1
17,3COPXFW7XCI4MBWM5363ZAY38NOPKS,AJFCCRG1TM3WT,3ZVPAMTJWN9I9IIP21KBHTB5HSBGR1,2,999,114,6139,3,4,0,2,3,2,4
17,3COPXFW7XCI4MBWM5363ZAY38NOPKS,AJFCCRG1TM3WT,3ZVPAMTJWN9I9IIP21KBHTB5HSBGR1,2,999,115,5815,2,1,0,2,2,7,1
17,3COPXFW7XCI4MBWM5363ZAY38NOPKS,AJFCCRG1TM3WT,3ZVPAMTJWN9I9IIP21KBHTB5HSBGR1,2,999,116,3699,7,4,1,2,5,7,4
17,3COPXFW7XCI4MBWM5363ZAY38NOPKS,AJFCCRG1TM3WT,3ZVPAMTJWN9I9IIP21KBHTB5HSBGR1,2,999,117,5201,2,1,1,2,4,2,1
17,3COPXFW7XCI4MBWM5363ZAY38NOPKS,AJFCCRG1TM3WT,3ZVPAMTJWN9I9IIP21KBHTB5HSBGR1,2,999,118,3101,6,1,0,1,6,1,2
17,3COPXFW7XCI4MBWM5363ZAY38NOPKS,AJFCCRG1TM3WT,3ZVPAMTJWN9I9IIP21KBHTB5HSBGR1,2,999,119,1879,3,4,0,1,3,4,6
17,3COPXFW7XCI4MBWM5363ZAY38NOPKS,AJFCCRG1TM3WT,3ZVPAMTJWN9I9IIP21KBHTB5HSBGR1,2,999,120,12253,5,2,0,2,5,3,2
17,3COPXFW7XCI4MBWM5363ZAY38NOPKS,AJFCCRG1TM3WT,3ZVPAMTJWN9I9IIP21KBHTB5HSBGR1,2,999,121,2443,4,3,1,2,5,4,3
17,3COPXFW7XCI4MBWM5363ZAY38NOPKS,AJFCCRG1TM3WT,3ZVPAMTJWN9I9IIP21KBHTB5HSBGR1,2,999,122,2064,2,5,1,0,5,2,7
17,3COPXFW7XCI4MBWM5363ZAY38NOPKS,AJFCCRG1TM3WT,3ZVPAMTJWN9I9IIP21KBHTB5HSBGR1,2,999,123,2477,2,6,0,2,2,5,6
17,3COPXFW7XCI4MBWM5363ZAY38NOPKS,AJFCCRG1TM3WT,3ZVPAMTJWN9I9IIP21KBHTB5HSBGR1,2,999,124,2430,1,5,0,2,1,3,5
17,3COPXFW7XCI4MBWM5363ZAY38NOPKS,AJFCCRG1TM3WT,3ZVPAMTJWN9I9IIP21KBHTB5HSBGR1,2,999,125,2276,5,2,1,2,4,5,2
17,3COPXFW7XCI4MBWM5363ZAY38NOPKS,AJFCCRG1TM3WT,3ZVPAMTJWN9I9IIP21KBHTB5HSBGR1,2,999,126,2229,4,7,2,1,2,7,4
17,3COPXFW7XCI4MBWM5363ZAY38NOPKS,AJFCCRG1TM3WT,3ZVPAMTJWN9I9IIP21KBHTB5HSBGR1,2,999,127,2371,2,1,2,0,1,3,2
17,3COPXFW7XCI4MBWM5363ZAY38NOPKS,AJFCCRG1TM3WT,3ZVPAMTJWN9I9IIP21KBHTB5HSBGR1,2,999,128,2386,3,7,1,2,6,3,7
17,3COPXFW7XCI4MBWM5363ZAY38NOPKS,AJFCCRG1TM3WT,3ZVPAMTJWN9I9IIP21KBHTB5HSBGR1,2,999,129,2996,6,5,2,0,5,4,6
17,3COPXFW7XCI4MBWM5363ZAY38NOPKS,AJFCCRG1TM3WT,3ZVPAMTJWN9I9IIP21KBHTB5HSBGR1,2,999,130,2594,1,6,0,2,1,5,6
17,3COPXFW7XCI4MBWM5363ZAY38NOPKS,AJFCCRG1TM3WT,3ZVPAMTJWN9I9IIP21KBHTB5HSBGR1,2,999,131,3670,4,7,1,0,7,4,3
17,3COPXFW7XCI4MBWM5363ZAY38NOPKS,AJFCCRG1TM3WT,3ZVPAMTJWN9I9IIP21KBHTB5HSBGR1,2,999,132,2015,3,7,0,1,3,7,2
17,3COPXFW7XCI4MBWM5363ZAY38NOPKS,AJFCCRG1TM3WT,3ZVPAMTJWN9I9IIP21KBHTB5HSBGR1,2,999,133,2035,4,7,0,2,4,1,7
17,3COPXFW7XCI4MBWM5363ZAY38NOPKS,AJFCCRG1TM3WT,3ZVPAMTJWN9I9IIP21KBHTB5HSBGR1,2,999,134,2319,6,2,0,2,6,4,2
17,3COPXFW7XCI4MBWM5363ZAY38NOPKS,AJFCCRG1TM3WT,3ZVPAMTJWN9I9IIP21KBHTB5HSBGR1,2,999,135,2192,3,7,0,1,3,7,5
17,3COPXFW7XCI4MBWM5363ZAY38NOPKS,AJFCCRG1TM3WT,3ZVPAMTJWN9I9IIP21KBHTB5HSBGR1,2,999,181,2756,6,5,2,1,2,5,6
17,3COPXFW7XCI4MBWM5363ZAY38NOPKS,AJFCCRG1TM3WT,3ZVPAMTJWN9I9IIP21KBHTB5HSBGR1,2,999,182,4488,1,5,1,2,4,1,5
17,3COPXFW7XCI4MBWM5363ZAY38NOPKS,AJFCCRG1TM3WT,3ZVPAMTJWN9I9IIP21KBHTB5HSBGR1,2,999,183,3149,5,1,2,0,1,3,5
17,3COPXFW7XCI4MBWM5363ZAY38NOPKS,AJFCCRG1TM3WT,3ZVPAMTJWN9I9IIP21KBHTB5HSBGR1,2,999,184,2431,4,3,1,2,5,4,3
17,3COPXFW7XCI4MBWM5363ZAY38NOPKS,AJFCCRG1TM3WT,3ZVPAMTJWN9I9IIP21KBHTB5HSBGR1,2,999,185,3039,1,2,2,0,2,5,1
17,3COPXFW7XCI4MBWM5363ZAY38NOPKS,AJFCCRG1TM3WT,3ZVPAMTJWN9I9IIP21KBHTB5HSBGR1,2,999,186,2432,3,4,1,2,1,3,4
17,3COPXFW7XCI4MBWM5363ZAY38NOPKS,AJFCCRG1TM3WT,3ZVPAMTJWN9I9IIP21KBHTB5HSBGR1,2,999,187,3106,6,1,2,0,1,5,6
17,3COPXFW7XCI4MBWM5363ZAY38NOPKS,AJFCCRG1TM3WT,3ZVPAMTJWN9I9IIP21KBHTB5HSBGR1,2,999,188,2371,5,2,1,2,4,5,2
17,3COPXFW7XCI4MBWM5363ZAY38NOPKS,AJFCCRG1TM3WT,3ZVPAMTJWN9I9IIP21KBHTB5HSBGR1,2,999,189,1866,6,5,2,0,5,4,6
17,3COPXFW7XCI4MBWM5363ZAY38NOPKS,AJFCCRG1TM3WT,3ZVPAMTJWN9I9IIP21KBHTB5HSBGR1,2,999,190,2455,1,5,1,2,7,1,5
17,3COPXFW7XCI4MBWM5363ZAY38NOPKS,AJFCCRG1TM3WT,3ZVPAMTJWN9I9IIP21KBHTB5HSBGR1,2,999,191,2524,3,7,0,1,3,7,5
17,3COPXFW7XCI4MBWM5363ZAY38NOPKS,AJFCCRG1TM3WT,3ZVPAMTJWN9I9IIP21KBHTB5HSBGR1,2,999,192,2275,1,6,2,1,7,6,1
17,3COPXFW7XCI4MBWM5363ZAY38NOPKS,AJFCCRG1TM3WT,3ZVPAMTJWN9I9IIP21KBHTB5HSBGR1,2,999,193,2822,1,2,2,1,4,2,1
17,3COPXFW7XCI4MBWM5363ZAY38NOPKS,AJFCCRG1TM3WT,3ZVPAMTJWN9I9IIP21KBHTB5HSBGR1,2,999,194,1940,5,2,0,2,5,3,2
17,3COPXFW7XCI4MBWM5363ZAY38NOPKS,AJFCCRG1TM3WT,3ZVPAMTJWN9I9IIP21KBHTB5HSBGR1,2,999,195,3528,2,5,1,0,5,2,7
17,3COPXFW7XCI4MBWM5363ZAY38NOPKS,AJFCCRG1TM3WT,3ZVPAMTJWN9I9IIP21KBHTB5HSBGR1,2,999,196,2116,4,7,0,2,4,6,7
17,3COPXFW7XCI4MBWM5363ZAY38NOPKS,AJFCCRG1TM3WT,3ZVPAMTJWN9I9IIP21KBHTB5HSBGR1,2,999,197,2981,7,4,0,1,7,4,3
17,3COPXFW7XCI4MBWM5363ZAY38NOPKS,AJFCCRG1TM3WT,3ZVPAMTJWN9I9IIP21KBHTB5HSBGR1,2,999,198,2314,7,4,1,2,2,7,4
17,3COPXFW7XCI4MBWM5363ZAY38NOPKS,AJFCCRG1TM3WT,3ZVPAMTJWN9I9IIP21KBHTB5HSBGR1,2,999,199,2342,7,3,1,0,3,7,2
17,3COPXFW7XCI4MBWM5363ZAY38NOPKS,AJFCCRG1TM3WT,3ZVPAMTJWN9I9IIP21KBHTB5HSBGR1,2,999,200,2179,4,3,2,0,3,2,4
17,3COPXFW7XCI4MBWM5363ZAY38NOPKS,AJFCCRG1TM3WT,3ZVPAMTJWN9I9IIP21KBHTB5HSBGR1,2,999,201,2158,6,1,0,2,6,4,1
17,3COPXFW7XCI4MBWM5363ZAY38NOPKS,AJFCCRG1TM3WT,3ZVPAMTJWN9I9IIP21KBHTB5HSBGR1,2,999,202,2120,4,7,0,2,4,1,7
17,3COPXFW7XCI4MBWM5363ZAY38NOPKS,AJFCCRG1TM3WT,3ZVPAMTJWN9I9IIP21KBHTB5HSBGR1,3,999,203,2098,186,186,true,true,186,186,199
17,3COPXFW7XCI4MBWM5363ZAY38NOPKS,AJFCCRG1TM3WT,3ZVPAMTJWN9I9IIP21KBHTB5HSBGR1,2,999,204,1943,1,6,1,2,3,1,6
17,3COPXFW7XCI4MBWM5363ZAY38NOPKS,AJFCCRG1TM3WT,3ZVPAMTJWN9I9IIP21KBHTB5HSBGR1,2,999,205,1876,2,1,2,0,1,3,2
17,3COPXFW7XCI4MBWM5363ZAY38NOPKS,AJFCCRG1TM3WT,3ZVPAMTJWN9I9IIP21KBHTB5HSBGR1,2,999,206,2128,6,5,1,2,7,6,5
17,3COPXFW7XCI4MBWM5363ZAY38NOPKS,AJFCCRG1TM3WT,3ZVPAMTJWN9I9IIP21KBHTB5HSBGR1,2,999,207,8559,6,4,2,1,3,4,6
17,3COPXFW7XCI4MBWM5363ZAY38NOPKS,AJFCCRG1TM3WT,3ZVPAMTJWN9I9IIP21KBHTB5HSBGR1,2,999,208,2352,6,2,0,1,6,2,3
17,3COPXFW7XCI4MBWM5363ZAY38NOPKS,AJFCCRG1TM3WT,3ZVPAMTJWN9I9IIP21KBHTB5HSBGR1,2,999,209,2148,7,4,1,2,5,7,4
17,3COPXFW7XCI4MBWM5363ZAY38NOPKS,AJFCCRG1TM3WT,3ZVPAMTJWN9I9IIP21KBHTB5HSBGR1,2,999,210,4386,6,2,0,2,6,4,2
17,3COPXFW7XCI4MBWM5363ZAY38NOPKS,AJFCCRG1TM3WT,3ZVPAMTJWN9I9IIP21KBHTB5HSBGR1,2,999,211,2499,2,1,0,2,2,7,1
17,3COPXFW7XCI4MBWM5363ZAY38NOPKS,AJFCCRG1TM3WT,3ZVPAMTJWN9I9IIP21KBHTB5HSBGR1,2,999,212,2178,5,6,0,1,5,6,3
17,3COPXFW7XCI4MBWM5363ZAY38NOPKS,AJFCCRG1TM3WT,3ZVPAMTJWN9I9IIP21KBHTB5HSBGR1,2,999,213,1678,7,3,2,0,3,1,7
17,3COPXFW7XCI4MBWM5363ZAY38NOPKS,AJFCCRG1TM3WT,3ZVPAMTJWN9I9IIP21KBHTB5HSBGR1,2,999,214,2105,2,6,2,0,6,7,2
17,3COPXFW7XCI4MBWM5363ZAY38NOPKS,AJFCCRG1TM3WT,3ZVPAMTJWN9I9IIP21KBHTB5HSBGR1,2,999,215,2588,6,1,0,1,6,1,2
17,3COPXFW7XCI4MBWM5363ZAY38NOPKS,AJFCCRG1TM3WT,3ZVPAMTJWN9I9IIP21KBHTB5HSBGR1,2,999,216,2201,3,7,1,2,6,3,7
17,3COPXFW7XCI4MBWM5363ZAY38NOPKS,AJFCCRG1TM3WT,3ZVPAMTJWN9I9IIP21KBHTB5HSBGR1,2,999,217,1850,5,1,2,1,7,1,5
17,3COPXFW7XCI4MBWM5363ZAY38NOPKS,AJFCCRG1TM3WT,3ZVPAMTJWN9I9IIP21KBHTB5HSBGR1,2,999,218,2136,2,6,1,0,6,2,3
17,3COPXFW7XCI4MBWM5363ZAY38NOPKS,AJFCCRG1TM3WT,3ZVPAMTJWN9I9IIP21KBHTB5HSBGR1,2,999,219,2307,2,1,0,2,2,5,1
17,3COPXFW7XCI4MBWM5363ZAY38NOPKS,AJFCCRG1TM3WT,3ZVPAMTJWN9I9IIP21KBHTB5HSBGR1,2,999,220,2991,6,1,0,1,6,1,2
17,3COPXFW7XCI4MBWM5363ZAY38NOPKS,AJFCCRG1TM3WT,3ZVPAMTJWN9I9IIP21KBHTB5HSBGR1,2,999,221,1926,5,2,0,1,5,2,7
17,3COPXFW7XCI4MBWM5363ZAY38NOPKS,AJFCCRG1TM3WT,3ZVPAMTJWN9I9IIP21KBHTB5HSBGR1,2,999,222,2212,2,6,0,2,2,5,6
17,3COPXFW7XCI4MBWM5363ZAY38NOPKS,AJFCCRG1TM3WT,3ZVPAMTJWN9I9IIP21KBHTB5HSBGR1,2,999,223,1900,4,3,2,0,3,2,4
17,3COPXFW7XCI4MBWM5363ZAY38NOPKS,AJFCCRG1TM3WT,3ZVPAMTJWN9I9IIP21KBHTB5HSBGR1,2,999,224,1700,6,1,0,2,6,4,1
17,3COPXFW7XCI4MBWM5363ZAY38NOPKS,AJFCCRG1TM3WT,3ZVPAMTJWN9I9IIP21KBHTB5HSBGR1,2,999,225,2433,3,7,1,2,6,3,7
17,3COPXFW7XCI4MBWM5363ZAY38NOPKS,AJFCCRG1TM3WT,3ZVPAMTJWN9I9IIP21KBHTB5HSBGR1,2,999,226,2095,5,2,1,2,4,5,2
17,3COPXFW7XCI4MBWM5363ZAY38NOPKS,AJFCCRG1TM3WT,3ZVPAMTJWN9I9IIP21KBHTB5HSBGR1,2,999,227,2305,2,6,2,0,6,4,2
17,3COPXFW7XCI4MBWM5363ZAY38NOPKS,AJFCCRG1TM3WT,3ZVPAMTJWN9I9IIP21KBHTB5HSBGR1,2,999,228,1814,3,7,0,1,3,7,5
17,3COPXFW7XCI4MBWM5363ZAY38NOPKS,AJFCCRG1TM3WT,3ZVPAMTJWN9I9IIP21KBHTB5HSBGR1,2,999,229,1856,2,1,2,0,1,3,2
17,3COPXFW7XCI4MBWM5363ZAY38NOPKS,AJFCCRG1TM3WT,3ZVPAMTJWN9I9IIP21KBHTB5HSBGR1,2,999,230,2046,2,1,1,2,4,2,1
17,3COPXFW7XCI4MBWM5363ZAY38NOPKS,AJFCCRG1TM3WT,3ZVPAMTJWN9I9IIP21KBHTB5HSBGR1,2,999,231,2571,4,3,1,2,5,4,3
17,3COPXFW7XCI4MBWM5363ZAY38NOPKS,AJFCCRG1TM3WT,3ZVPAMTJWN9I9IIP21KBHTB5HSBGR1,3,999,232,5726,164,164,true,true,164,164,190
17,3COPXFW7XCI4MBWM5363ZAY38NOPKS,AJFCCRG1TM3WT,3ZVPAMTJWN9I9IIP21KBHTB5HSBGR1,2,999,233,2933,6,5,1,2,7,6,5
17,3COPXFW7XCI4MBWM5363ZAY38NOPKS,AJFCCRG1TM3WT,3ZVPAMTJWN9I9IIP21KBHTB5HSBGR1,2,999,234,1862,3,7,0,1,3,7,2
17,3COPXFW7XCI4MBWM5363ZAY38NOPKS,AJFCCRG1TM3WT,3ZVPAMTJWN9I9IIP21KBHTB5HSBGR1,2,999,235,2111,1,5,0,2,1,3,5
17,3COPXFW7XCI4MBWM5363ZAY38NOPKS,AJFCCRG1TM3WT,3ZVPAMTJWN9I9IIP21KBHTB5HSBGR1,2,999,236,2480,7,4,0,1,7,4,3
17,3COPXFW7XCI4MBWM5363ZAY38NOPKS,AJFCCRG1TM3WT,3ZVPAMTJWN9I9IIP21KBHTB5HSBGR1,2,999,237,2152,1,5,1,2,4,1,5
17,3COPXFW7XCI4MBWM5363ZAY38NOPKS,AJFCCRG1TM3WT,3ZVPAMTJWN9I9IIP21KBHTB5HSBGR1,2,999,238,1828,7,4,2,0,4,1,7
17,3COPXFW7XCI4MBWM5363ZAY38NOPKS,AJFCCRG1TM3WT,3ZVPAMTJWN9I9IIP21KBHTB5HSBGR1,2,999,239,2135,7,4,1,2,5,7,4
17,3COPXFW7XCI4MBWM5363ZAY38NOPKS,AJFCCRG1TM3WT,3ZVPAMTJWN9I9IIP21KBHTB5HSBGR1,2,999,240,2438,1,2,2,0,2,7,1
17,3COPXFW7XCI4MBWM5363ZAY38NOPKS,AJFCCRG1TM3WT,3ZVPAMTJWN9I9IIP21KBHTB5HSBGR1,2,999,241,2020,6,1,1,2,7,6,1
17,3COPXFW7XCI4MBWM5363ZAY38NOPKS,AJFCCRG1TM3WT,3ZVPAMTJWN9I9IIP21KBHTB5HSBGR1,2,999,242,2032,1,6,0,2,1,5,6
17,3COPXFW7XCI4MBWM5363ZAY38NOPKS,AJFCCRG1TM3WT,3ZVPAMTJWN9I9IIP21KBHTB5HSBGR1,2,999,243,2176,2,6,2,0,6,7,2
17,3COPXFW7XCI4MBWM5363ZAY38NOPKS,AJFCCRG1TM3WT,3ZVPAMTJWN9I9IIP21KBHTB5HSBGR1,2,999,244,1981,7,4,2,0,4,6,7
17,3COPXFW7XCI4MBWM5363ZAY38NOPKS,AJFCCRG1TM3WT,3ZVPAMTJWN9I9IIP21KBHTB5HSBGR1,2,999,245,2247,2,5,2,0,5,3,2
17,3COPXFW7XCI4MBWM5363ZAY38NOPKS,AJFCCRG1TM3WT,3ZVPAMTJWN9I9IIP21KBHTB5HSBGR1,2,999,246,1758,5,6,0,1,5,6,3
17,3COPXFW7XCI4MBWM5363ZAY38NOPKS,AJFCCRG1TM3WT,3ZVPAMTJWN9I9IIP21KBHTB5HSBGR1,2,999,247,2048,3,4,0,1,3,4,6
17,3COPXFW7XCI4MBWM5363ZAY38NOPKS,AJFCCRG1TM3WT,3ZVPAMTJWN9I9IIP21KBHTB5HSBGR1,2,999,248,1956,7,3,2,0,3,1,7
17,3COPXFW7XCI4MBWM5363ZAY38NOPKS,AJFCCRG1TM3WT,3ZVPAMTJWN9I9IIP21KBHTB5HSBGR1,2,999,249,1923,1,6,1,2,3,1,6
17,3COPXFW7XCI4MBWM5363ZAY38NOPKS,AJFCCRG1TM3WT,3ZVPAMTJWN9I9IIP21KBHTB5HSBGR1,2,999,250,2037,7,4,1,2,2,7,4
17,3COPXFW7XCI4MBWM5363ZAY38NOPKS,AJFCCRG1TM3WT,3ZVPAMTJWN9I9IIP21KBHTB5HSBGR1,2,999,251,1861,6,5,2,0,5,4,6
17,3COPXFW7XCI4MBWM5363ZAY38NOPKS,AJFCCRG1TM3WT,3ZVPAMTJWN9I9IIP21KBHTB5HSBGR1,2,999,252,3897,3,4,1,2,1,3,4
18,3H7Z272LX8DF6HE4Q3I4EABIXNTPLV,AAHD6IAAOUN1F,3ZVPAMTJWN9I9IIP21KBHTB5HSBGR1,1,1,7,3380,19,18,1,0,18,19,16
18,3H7Z272LX8DF6HE4Q3I4EABIXNTPLV,AAHD6IAAOUN1F,3ZVPAMTJWN9I9IIP21KBHTB5HSBGR1,1,1,15,4024,18,17,0,2,18,10,17
18,3H7Z272LX8DF6HE4Q3I4EABIXNTPLV,AAHD6IAAOUN1F,3ZVPAMTJWN9I9IIP21KBHTB5HSBGR1,1,1,16,10860,12,20,1,2,16,12,20
18,3H7Z272LX8DF6HE4Q3I4EABIXNTPLV,AAHD6IAAOUN1F,3ZVPAMTJWN9I9IIP21KBHTB5HSBGR1,2,999,18,4442,3,5,2,0,5,4,3
18,3H7Z272LX8DF6HE4Q3I4EABIXNTPLV,AAHD6IAAOUN1F,3ZVPAMTJWN9I9IIP21KBHTB5HSBGR1,2,999,19,5493,1,5,0,1,1,5,6
18,3H7Z272LX8DF6HE4Q3I4EABIXNTPLV,AAHD6IAAOUN1F,3ZVPAMTJWN9I9IIP21KBHTB5HSBGR1,2,999,20,3658,1,4,2,0,4,2,1
18,3H7Z272LX8DF6HE4Q3I4EABIXNTPLV,AAHD6IAAOUN1F,3ZVPAMTJWN9I9IIP21KBHTB5HSBGR1,3,999,21,2298,195,195,true,true,195,195,141
18,3H7Z272LX8DF6HE4Q3I4EABIXNTPLV,AAHD6IAAOUN1F,3ZVPAMTJWN9I9IIP21KBHTB5HSBGR1,2,999,22,3508,6,1,2,1,3,1,6
18,3H7Z272LX8DF6HE4Q3I4EABIXNTPLV,AAHD6IAAOUN1F,3ZVPAMTJWN9I9IIP21KBHTB5HSBGR1,2,999,23,5572,5,2,1,2,4,5,2
18,3H7Z272LX8DF6HE4Q3I4EABIXNTPLV,AAHD6IAAOUN1F,3ZVPAMTJWN9I9IIP21KBHTB5HSBGR1,2,999,24,3624,4,6,1,0,6,4,1
18,3H7Z272LX8DF6HE4Q3I4EABIXNTPLV,AAHD6IAAOUN1F,3ZVPAMTJWN9I9IIP21KBHTB5HSBGR1,2,999,25,3770,1,2,0,2,1,3,2
18,3H7Z272LX8DF6HE4Q3I4EABIXNTPLV,AAHD6IAAOUN1F,3ZVPAMTJWN9I9IIP21KBHTB5HSBGR1,2,999,26,3725,4,1,2,0,1,3,4
18,3H7Z272LX8DF6HE4Q3I4EABIXNTPLV,AAHD6IAAOUN1F,3ZVPAMTJWN9I9IIP21KBHTB5HSBGR1,2,999,27,10840,4,5,2,0,5,7,4
18,3H7Z272LX8DF6HE4Q3I4EABIXNTPLV,AAHD6IAAOUN1F,3ZVPAMTJWN9I9IIP21KBHTB5HSBGR1,2,999,28,2369,7,5,1,2,3,7,5
18,3H7Z272LX8DF6HE4Q3I4EABIXNTPLV,AAHD6IAAOUN1F,3ZVPAMTJWN9I9IIP21KBHTB5HSBGR1,2,999,29,5037,6,3,2,0,3,4,6
18,3H7Z272LX8DF6HE4Q3I4EABIXNTPLV,AAHD6IAAOUN1F,3ZVPAMTJWN9I9IIP21KBHTB5HSBGR1,2,999,30,3534,5,2,1,0,2,5,6
18,3H7Z272LX8DF6HE4Q3I4EABIXNTPLV,AAHD6IAAOUN1F,3ZVPAMTJWN9I9IIP21KBHTB5HSBGR1,2,999,31,3782,7,3,1,0,3,7,2
18,3H7Z272LX8DF6HE4Q3I4EABIXNTPLV,AAHD6IAAOUN1F,3ZVPAMTJWN9I9IIP21KBHTB5HSBGR1,2,999,32,4925,6,7,1,0,7,6,1
18,3H7Z272LX8DF6HE4Q3I4EABIXNTPLV,AAHD6IAAOUN1F,3ZVPAMTJWN9I9IIP21KBHTB5HSBGR1,2,999,33,5362,2,4,0,2,2,7,4
18,3H7Z272LX8DF6HE4Q3I4EABIXNTPLV,AAHD6IAAOUN1F,3ZVPAMTJWN9I9IIP21KBHTB5HSBGR1,2,999,34,2972,1,5,0,2,1,3,5
18,3H7Z272LX8DF6HE4Q3I4EABIXNTPLV,AAHD6IAAOUN1F,3ZVPAMTJWN9I9IIP21KBHTB5HSBGR1,2,999,35,3805,5,2,0,2,5,3,2
18,3H7Z272LX8DF6HE4Q3I4EABIXNTPLV,AAHD6IAAOUN1F,3ZVPAMTJWN9I9IIP21KBHTB5HSBGR1,2,999,36,2077,2,5,1,0,5,2,7
18,3H7Z272LX8DF6HE4Q3I4EABIXNTPLV,AAHD6IAAOUN1F,3ZVPAMTJWN9I9IIP21KBHTB5HSBGR1,2,999,37,3290,1,5,1,2,7,1,5
18,3H7Z272LX8DF6HE4Q3I4EABIXNTPLV,AAHD6IAAOUN1F,3ZVPAMTJWN9I9IIP21KBHTB5HSBGR1,2,999,38,2001,4,6,1,0,6,4,2
18,3H7Z272LX8DF6HE4Q3I4EABIXNTPLV,AAHD6IAAOUN1F,3ZVPAMTJWN9I9IIP21KBHTB5HSBGR1,2,999,39,3248,6,7,1,2,4,6,7
18,3H7Z272LX8DF6HE4Q3I4EABIXNTPLV,AAHD6IAAOUN1F,3ZVPAMTJWN9I9IIP21KBHTB5HSBGR1,2,999,40,2638,2,1,0,2,2,7,1
18,3H7Z272LX8DF6HE4Q3I4EABIXNTPLV,AAHD6IAAOUN1F,3ZVPAMTJWN9I9IIP21KBHTB5HSBGR1,2,999,41,2220,1,6,1,0,6,1,2
18,3H7Z272LX8DF6HE4Q3I4EABIXNTPLV,AAHD6IAAOUN1F,3ZVPAMTJWN9I9IIP21KBHTB5HSBGR1,2,999,42,6180,6,5,1,2,7,6,5
18,3H7Z272LX8DF6HE4Q3I4EABIXNTPLV,AAHD6IAAOUN1F,3ZVPAMTJWN9I9IIP21KBHTB5HSBGR1,2,999,43,19731,5,1,1,2,2,5,1
18,3H7Z272LX8DF6HE4Q3I4EABIXNTPLV,AAHD6IAAOUN1F,3ZVPAMTJWN9I9IIP21KBHTB5HSBGR1,2,999,44,2219,1,5,1,2,4,1,5
18,3H7Z272LX8DF6HE4Q3I4EABIXNTPLV,AAHD6IAAOUN1F,3ZVPAMTJWN9I9IIP21KBHTB5HSBGR1,2,999,45,1892,6,5,1,0,5,6,3
18,3H7Z272LX8DF6HE4Q3I4EABIXNTPLV,AAHD6IAAOUN1F,3ZVPAMTJWN9I9IIP21KBHTB5HSBGR1,2,999,46,4029,6,4,2,1,5,4,6
18,3H7Z272LX8DF6HE4Q3I4EABIXNTPLV,AAHD6IAAOUN1F,3ZVPAMTJWN9I9IIP21KBHTB5HSBGR1,2,999,47,2938,7,3,0,2,7,4,3
18,3H7Z272LX8DF6HE4Q3I4EABIXNTPLV,AAHD6IAAOUN1F,3ZVPAMTJWN9I9IIP21KBHTB5HSBGR1,2,999,48,1834,7,3,2,0,3,1,7
18,3H7Z272LX8DF6HE4Q3I4EABIXNTPLV,AAHD6IAAOUN1F,3ZVPAMTJWN9I9IIP21KBHTB5HSBGR1,2,999,49,2071,7,3,2,1,6,3,7
18,3H7Z272LX8DF6HE4Q3I4EABIXNTPLV,AAHD6IAAOUN1F,3ZVPAMTJWN9I9IIP21KBHTB5HSBGR1,2,999,50,3662,1,4,1,0,4,1,7
18,3H7Z272LX8DF6HE4Q3I4EABIXNTPLV,AAHD6IAAOUN1F,3ZVPAMTJWN9I9IIP21KBHTB5HSBGR1,2,999,51,9148,2,6,2,0,6,7,2
18,3H7Z272LX8DF6HE4Q3I4EABIXNTPLV,AAHD6IAAOUN1F,3ZVPAMTJWN9I9IIP21KBHTB5HSBGR1,2,999,52,2015,2,6,1,0,6,2,3
18,3H7Z272LX8DF6HE4Q3I4EABIXNTPLV,AAHD6IAAOUN1F,3ZVPAMTJWN9I9IIP21KBHTB5HSBGR1,2,999,53,2061,2,4,1,2,3,2,4
18,3H7Z272LX8DF6HE4Q3I4EABIXNTPLV,AAHD6IAAOUN1F,3ZVPAMTJWN9I9IIP21KBHTB5HSBGR1,2,999,98,7799,2,5,1,0,5,2,7
18,3H7Z272LX8DF6HE4Q3I4EABIXNTPLV,AAHD6IAAOUN1F,3ZVPAMTJWN9I9IIP21KBHTB5HSBGR1,2,999,99,2564,6,4,2,1,3,4,6
18,3H7Z272LX8DF6HE4Q3I4EABIXNTPLV,AAHD6IAAOUN1F,3ZVPAMTJWN9I9IIP21KBHTB5HSBGR1,2,999,100,2224,7,3,2,1,6,3,7
18,3H7Z272LX8DF6HE4Q3I4EABIXNTPLV,AAHD6IAAOUN1F,3ZVPAMTJWN9I9IIP21KBHTB5HSBGR1,2,999,101,2224,4,2,2,0,2,7,4
18,3H7Z272LX8DF6HE4Q3I4EABIXNTPLV,AAHD6IAAOUN1F,3ZVPAMTJWN9I9IIP21KBHTB5HSBGR1,2,999,102,1564,5,2,1,0,2,5,6
18,3H7Z272LX8DF6HE4Q3I4EABIXNTPLV,AAHD6IAAOUN1F,3ZVPAMTJWN9I9IIP21KBHTB5HSBGR1,2,999,103,2009,1,5,0,1,1,5,6
18,3H7Z272LX8DF6HE4Q3I4EABIXNTPLV,AAHD6IAAOUN1F,3ZVPAMTJWN9I9IIP21KBHTB5HSBGR1,2,999,104,1909,2,4,1,2,3,2,4
18,3H7Z272LX8DF6HE4Q3I4EABIXNTPLV,AAHD6IAAOUN1F,3ZVPAMTJWN9I9IIP21KBHTB5HSBGR1,2,999,105,2954,6,3,2,0,3,1,6
18,3H7Z272LX8DF6HE4Q3I4EABIXNTPLV,AAHD6IAAOUN1F,3ZVPAMTJWN9I9IIP21KBHTB5HSBGR1,2,999,106,2030,2,7,2,1,3,7,2
18,3H7Z272LX8DF6HE4Q3I4EABIXNTPLV,AAHD6IAAOUN1F,3ZVPAMTJWN9I9IIP21KBHTB5HSBGR1,2,999,107,3490,7,3,1,0,3,7,5
18,3H7Z272LX8DF6HE4Q3I4EABIXNTPLV,AAHD6IAAOUN1F,3ZVPAMTJWN9I9IIP21KBHTB5HSBGR1,2,999,108,1571,4,6,1,0,6,4,2
18,3H7Z272LX8DF6HE4Q3I4EABIXNTPLV,AAHD6IAAOUN1F,3ZVPAMTJWN9I9IIP21KBHTB5HSBGR1,2,999,109,2946,6,7,1,0,7,6,1
18,3H7Z272LX8DF6HE4Q3I4EABIXNTPLV,AAHD6IAAOUN1F,3ZVPAMTJWN9I9IIP21KBHTB5HSBGR1,2,999,110,1820,6,7,1,0,7,6,5
18,3H7Z272LX8DF6HE4Q3I4EABIXNTPLV,AAHD6IAAOUN1F,3ZVPAMTJWN9I9IIP21KBHTB5HSBGR1,2,999,111,1807,2,5,2,0,5,3,2
18,3H7Z272LX8DF6HE4Q3I4EABIXNTPLV,AAHD6IAAOUN1F,3ZVPAMTJWN9I9IIP21KBHTB5HSBGR1,2,999,112,1950,2,1,2,1,6,1,2
18,3H7Z272LX8DF6HE4Q3I4EABIXNTPLV,AAHD6IAAOUN1F,3ZVPAMTJWN9I9IIP21KBHTB5HSBGR1,2,999,113,1338,7,6,1,0,6,7,2
18,3H7Z272LX8DF6HE4Q3I4EABIXNTPLV,AAHD6IAAOUN1F,3ZVPAMTJWN9I9IIP21KBHTB5HSBGR1,2,999,114,1827,2,5,2,1,4,5,2
18,3H7Z272LX8DF6HE4Q3I4EABIXNTPLV,AAHD6IAAOUN1F,3ZVPAMTJWN9I9IIP21KBHTB5HSBGR1,2,999,115,2327,4,5,1,0,5,4,3
18,3H7Z272LX8DF6HE4Q3I4EABIXNTPLV,AAHD6IAAOUN1F,3ZVPAMTJWN9I9IIP21KBHTB5HSBGR1,2,999,116,2229,4,5,1,0,5,4,6
18,3H7Z272LX8DF6HE4Q3I4EABIXNTPLV,AAHD6IAAOUN1F,3ZVPAMTJWN9I9IIP21KBHTB5HSBGR1,2,999,117,2443,5,6,0,1,5,6,3
18,3H7Z272LX8DF6HE4Q3I4EABIXNTPLV,AAHD6IAAOUN1F,3ZVPAMTJWN9I9IIP21KBHTB5HSBGR1,2,999,118,3495,4,5,2,0,5,7,4
18,3H7Z272LX8DF6HE4Q3I4EABIXNTPLV,AAHD6IAAOUN1F,3ZVPAMTJWN9I9IIP21KBHTB5HSBGR1,2,999,119,5521,1,4,1,0,4,1,5
18,3H7Z272LX8DF6HE4Q3I4EABIXNTPLV,AAHD6IAAOUN1F,3ZVPAMTJWN9I9IIP21KBHTB5HSBGR1,2,999,120,2731,3,7,0,2,3,1,7
18,3H7Z272LX8DF6HE4Q3I4EABIXNTPLV,AAHD6IAAOUN1F,3ZVPAMTJWN9I9IIP21KBHTB5HSBGR1,2,999,121,2534,4,1,0,1,4,1,7
18,3H7Z272LX8DF6HE4Q3I4EABIXNTPLV,AAHD6IAAOUN1F,3ZVPAMTJWN9I9IIP21KBHTB5HSBGR1,3,999,122,1806,193,193,true,true,193,193,198
18,3H7Z272LX8DF6HE4Q3I4EABIXNTPLV,AAHD6IAAOUN1F,3ZVPAMTJWN9I9IIP21KBHTB5HSBGR1,2,999,123,1846,1,2,2,0,2,7,1
18,3H7Z272LX8DF6HE4Q3I4EABIXNTPLV,AAHD6IAAOUN1F,3ZVPAMTJWN9I9IIP21KBHTB5HSBGR1,2,999,124,2247,3,7,2,0,7,4,3
18,3H7Z272LX8DF6HE4Q3I4EABIXNTPLV,AAHD6IAAOUN1F,3ZVPAMTJWN9I9IIP21KBHTB5HSBGR1,2,999,125,2215,1,4,2,1,6,4,1
18,3H7Z272LX8DF6HE4Q3I4EABIXNTPLV,AAHD6IAAOUN1F,3ZVPAMTJWN9I9IIP21KBHTB5HSBGR1,2,999,126,1673,7,4,2,0,4,6,7
18,3H7Z272LX8DF6HE4Q3I4EABIXNTPLV,AAHD6IAAOUN1F,3ZVPAMTJWN9I9IIP21KBHTB5HSBGR1,2,999,127,2156,1,5,1,2,7,1,5
18,3H7Z272LX8DF6HE4Q3I4EABIXNTPLV,AAHD6IAAOUN1F,3ZVPAMTJWN9I9IIP21KBHTB5HSBGR1,2,999,128,1562,5,2,1,0,2,5,1
18,3H7Z272LX8DF6HE4Q3I4EABIXNTPLV,AAHD6IAAOUN1F,3ZVPAMTJWN9I9IIP21KBHTB5HSBGR1,2,999,129,1783,1,2,2,1,4,2,1
18,3H7Z272LX8DF6HE4Q3I4EABIXNTPLV,AAHD6IAAOUN1F,3ZVPAMTJWN9I9IIP21KBHTB5HSBGR1,2,999,130,2524,1,5,0,2,1,3,5
18,3H7Z272LX8DF6HE4Q3I4EABIXNTPLV,AAHD6IAAOUN1F,3ZVPAMTJWN9I9IIP21KBHTB5HSBGR1,2,999,131,3193,6,3,0,2,6,2,3
18,3H7Z272LX8DF6HE4Q3I4EABIXNTPLV,AAHD6IAAOUN1F,3ZVPAMTJWN9I9IIP21KBHTB5HSBGR1,2,999,132,3378,4,1,2,0,1,3,4
18,3H7Z272LX8DF6HE4Q3I4EABIXNTPLV,AAHD6IAAOUN1F,3ZVPAMTJWN9I9IIP21KBHTB5HSBGR1,2,999,133,1721,2,1,2,0,1,3,2
18,3H7Z272LX8DF6HE4Q3I4EABIXNTPLV,AAHD6IAAOUN1F,3ZVPAMTJWN9I9IIP21KBHTB5HSBGR1,2,999,179,2535,5,7,2,1,3,7,5
18,3H7Z272LX8DF6HE4Q3I4EABIXNTPLV,AAHD6IAAOUN1F,3ZVPAMTJWN9I9IIP21KBHTB5HSBGR1,2,999,180,1931,6,7,0,2,6,3,7
18,3H7Z272LX8DF6HE4Q3I4EABIXNTPLV,AAHD6IAAOUN1F,3ZVPAMTJWN9I9IIP21KBHTB5HSBGR1,2,999,181,2023,1,4,1,0,4,1,5
18,3H7Z272LX8DF6HE4Q3I4EABIXNTPLV,AAHD6IAAOUN1F,3ZVPAMTJWN9I9IIP21KBHTB5HSBGR1,2,999,182,4126,2,6,2,0,6,4,2
18,3H7Z272LX8DF6HE4Q3I4EABIXNTPLV,AAHD6IAAOUN1F,3ZVPAMTJWN9I9IIP21KBHTB5HSBGR1,2,999,183,2042,2,3,2,1,1,3,2
18,3H7Z272LX8DF6HE4Q3I4EABIXNTPLV,AAHD6IAAOUN1F,3ZVPAMTJWN9I9IIP21KBHTB5HSBGR1,2,999,184,2581,6,3,1,2,5,6,3
18,3H7Z272LX8DF6HE4Q3I4EABIXNTPLV,AAHD6IAAOUN1F,3ZVPAMTJWN9I9IIP21KBHTB5HSBGR1,2,999,185,2151,7,6,1,0,6,7,2
18,3H7Z272LX8DF6HE4Q3I4EABIXNTPLV,AAHD6IAAOUN1F,3ZVPAMTJWN9I9IIP21KBHTB5HSBGR1,2,999,186,2401,2,5,1,0,5,2,7
18,3H7Z272LX8DF6HE4Q3I4EABIXNTPLV,AAHD6IAAOUN1F,3ZVPAMTJWN9I9IIP21KBHTB5HSBGR1,2,999,187,2480,1,7,1,2,3,1,7
18,3H7Z272LX8DF6HE4Q3I4EABIXNTPLV,AAHD6IAAOUN1F,3ZVPAMTJWN9I9IIP21KBHTB5HSBGR1,2,999,188,4782,5,2,0,2,5,3,2
18,3H7Z272LX8DF6HE4Q3I4EABIXNTPLV,AAHD6IAAOUN1F,3ZVPAMTJWN9I9IIP21KBHTB5HSBGR1,2,999,189,2529,4,7,2,1,2,7,4
18,3H7Z272LX8DF6HE4Q3I4EABIXNTPLV,AAHD6IAAOUN1F,3ZVPAMTJWN9I9IIP21KBHTB5HSBGR1,2,999,190,2043,7,4,1,2,5,7,4
18,3H7Z272LX8DF6HE4Q3I4EABIXNTPLV,AAHD6IAAOUN1F,3ZVPAMTJWN9I9IIP21KBHTB5HSBGR1,2,999,191,1928,1,5,0,1,1,5,6
18,3H7Z272LX8DF6HE4Q3I4EABIXNTPLV,AAHD6IAAOUN1F,3ZVPAMTJWN9I9IIP21KBHTB5HSBGR1,2,999,192,2060,6,5,2,1,2,5,6
18,3H7Z272LX8DF6HE4Q3I4EABIXNTPLV,AAHD6IAAOUN1F,3ZVPAMTJWN9I9IIP21KBHTB5HSBGR1,3,999,193,1327,193,193,true,true,193,193,164
18,3H7Z272LX8DF6HE4Q3I4EABIXNTPLV,AAHD6IAAOUN1F,3ZVPAMTJWN9I9IIP21KBHTB5HSBGR1,2,999,194,7751,7,1,1,2,2,7,1
18,3H7Z272LX8DF6HE4Q3I4EABIXNTPLV,AAHD6IAAOUN1F,3ZVPAMTJWN9I9IIP21KBHTB5HSBGR1,2,999,195,3570,3,4,2,1,5,4,3
18,3H7Z272LX8DF6HE4Q3I4EABIXNTPLV,AAHD6IAAOUN1F,3ZVPAMTJWN9I9IIP21KBHTB5HSBGR1,2,999,196,1832,7,3,1,0,3,7,2
18,3H7Z272LX8DF6HE4Q3I4EABIXNTPLV,AAHD6IAAOUN1F,3ZVPAMTJWN9I9IIP21KBHTB5HSBGR1,2,999,197,2193,6,2,0,2,6,1,2
18,3H7Z272LX8DF6HE4Q3I4EABIXNTPLV,AAHD6IAAOUN1F,3ZVPAMTJWN9I9IIP21KBHTB5HSBGR1,2,999,198,1744,4,1,2,0,1,3,4
18,3H7Z272LX8DF6HE4Q3I4EABIXNTPLV,AAHD6IAAOUN1F,3ZVPAMTJWN9I9IIP21KBHTB5HSBGR1,2,999,199,2137,1,5,0,2,1,3,5
18,3H7Z272LX8DF6HE4Q3I4EABIXNTPLV,AAHD6IAAOUN1F,3ZVPAMTJWN9I9IIP21KBHTB5HSBGR1,2,999,200,37742,3,2,2,1,6,2,3
18,3H7Z272LX8DF6HE4Q3I4EABIXNTPLV,AAHD6IAAOUN1F,3ZVPAMTJWN9I9IIP21KBHTB5HSBGR1,2,999,201,1393,4,7,1,0,7,4,3
18,3H7Z272LX8DF6HE4Q3I4EABIXNTPLV,AAHD6IAAOUN1F,3ZVPAMTJWN9I9IIP21KBHTB5HSBGR1,2,999,202,1938,6,5,2,0,5,4,6
18,3H7Z272LX8DF6HE4Q3I4EABIXNTPLV,AAHD6IAAOUN1F,3ZVPAMTJWN9I9IIP21KBHTB5HSBGR1,2,999,203,1746,1,6,2,1,7,6,1
18,3H7Z272LX8DF6HE4Q3I4EABIXNTPLV,AAHD6IAAOUN1F,3ZVPAMTJWN9I9IIP21KBHTB5HSBGR1,2,999,204,1606,1,4,2,0,4,2,1
18,3H7Z272LX8DF6HE4Q3I4EABIXNTPLV,AAHD6IAAOUN1F,3ZVPAMTJWN9I9IIP21KBHTB5HSBGR1,2,999,205,17488,4,1,0,1,4,1,7
18,3H7Z272LX8DF6HE4Q3I4EABIXNTPLV,AAHD6IAAOUN1F,3ZVPAMTJWN9I9IIP21KBHTB5HSBGR1,2,999,206,2068,5,1,1,2,2,5,1
18,3H7Z272LX8DF6HE4Q3I4EABIXNTPLV,AAHD6IAAOUN1F,3ZVPAMTJWN9I9IIP21KBHTB5HSBGR1,2,999,207,2328,5,7,2,0,7,6,5
18,3H7Z272LX8DF6HE4Q3I4EABIXNTPLV,AAHD6IAAOUN1F,3ZVPAMTJWN9I9IIP21KBHTB5HSBGR1,2,999,208,2347,4,1,1,2,6,4,1
18,3H7Z272LX8DF6HE4Q3I4EABIXNTPLV,AAHD6IAAOUN1F,3ZVPAMTJWN9I9IIP21KBHTB5HSBGR1,2,999,209,2782,4,5,0,1,4,5,2
18,3H7Z272LX8DF6HE4Q3I4EABIXNTPLV,AAHD6IAAOUN1F,3ZVPAMTJWN9I9IIP21KBHTB5HSBGR1,2,999,210,1752,2,3,1,0,3,2,4
18,3H7Z272LX8DF6HE4Q3I4EABIXNTPLV,AAHD6IAAOUN1F,3ZVPAMTJWN9I9IIP21KBHTB5HSBGR1,2,999,211,2521,1,7,1,0,7,1,5
18,3H7Z272LX8DF6HE4Q3I4EABIXNTPLV,AAHD6IAAOUN1F,3ZVPAMTJWN9I9IIP21KBHTB5HSBGR1,2,999,212,1838,6,3,2,0,3,1,6
18,3H7Z272LX8DF6HE4Q3I4EABIXNTPLV,AAHD6IAAOUN1F,3ZVPAMTJWN9I9IIP21KBHTB5HSBGR1,2,999,213,1980,6,3,2,0,3,4,6
18,3H7Z272LX8DF6HE4Q3I4EABIXNTPLV,AAHD6IAAOUN1F,3ZVPAMTJWN9I9IIP21KBHTB5HSBGR1,2,999,214,2290,7,6,2,1,4,6,7
18,3H7Z272LX8DF6HE4Q3I4EABIXNTPLV,AAHD6IAAOUN1F,3ZVPAMTJWN9I9IIP21KBHTB5HSBGR1,2,999,215,1722,4,5,1,0,5,4,3
18,3H7Z272LX8DF6HE4Q3I4EABIXNTPLV,AAHD6IAAOUN1F,3ZVPAMTJWN9I9IIP21KBHTB5HSBGR1,2,999,216,2284,5,1,1,2,2,5,1
18,3H7Z272LX8DF6HE4Q3I4EABIXNTPLV,AAHD6IAAOUN1F,3ZVPAMTJWN9I9IIP21KBHTB5HSBGR1,2,999,217,3955,5,3,0,1,5,3,2
18,3H7Z272LX8DF6HE4Q3I4EABIXNTPLV,AAHD6IAAOUN1F,3ZVPAMTJWN9I9IIP21KBHTB5HSBGR1,2,999,218,1629,7,4,0,1,7,4,3
18,3H7Z272LX8DF6HE4Q3I4EABIXNTPLV,AAHD6IAAOUN1F,3ZVPAMTJWN9I9IIP21KBHTB5HSBGR1,2,999,219,2807,3,2,0,1,3,2,4
18,3H7Z272LX8DF6HE4Q3I4EABIXNTPLV,AAHD6IAAOUN1F,3ZVPAMTJWN9I9IIP21KBHTB5HSBGR1,2,999,220,1966,5,7,2,1,3,7,5
18,3H7Z272LX8DF6HE4Q3I4EABIXNTPLV,AAHD6IAAOUN1F,3ZVPAMTJWN9I9IIP21KBHTB5HSBGR1,2,999,221,1688,7,5,1,0,5,7,4
18,3H7Z272LX8DF6HE4Q3I4EABIXNTPLV,AAHD6IAAOUN1F,3ZVPAMTJWN9I9IIP21KBHTB5HSBGR1,2,999,222,1989,4,1,0,1,4,1,7
18,3H7Z272LX8DF6HE4Q3I4EABIXNTPLV,AAHD6IAAOUN1F,3ZVPAMTJWN9I9IIP21KBHTB5HSBGR1,2,999,223,2288,4,1,2,0,1,3,4
18,3H7Z272LX8DF6HE4Q3I4EABIXNTPLV,AAHD6IAAOUN1F,3ZVPAMTJWN9I9IIP21KBHTB5HSBGR1,2,999,224,2081,1,4,1,0,4,1,5
18,3H7Z272LX8DF6HE4Q3I4EABIXNTPLV,AAHD6IAAOUN1F,3ZVPAMTJWN9I9IIP21KBHTB5HSBGR1,2,999,225,2862,6,3,1,2,5,6,3
18,3H7Z272LX8DF6HE4Q3I4EABIXNTPLV,AAHD6IAAOUN1F,3ZVPAMTJWN9I9IIP21KBHTB5HSBGR1,2,999,226,1981,1,7,1,2,3,1,7
18,3H7Z272LX8DF6HE4Q3I4EABIXNTPLV,AAHD6IAAOUN1F,3ZVPAMTJWN9I9IIP21KBHTB5HSBGR1,2,999,227,2201,5,4,1,0,4,5,2
18,3H7Z272LX8DF6HE4Q3I4EABIXNTPLV,AAHD6IAAOUN1F,3ZVPAMTJWN9I9IIP21KBHTB5HSBGR1,2,999,228,1722,1,7,2,0,7,6,1
18,3H7Z272LX8DF6HE4Q3I4EABIXNTPLV,AAHD6IAAOUN1F,3ZVPAMTJWN9I9IIP21KBHTB5HSBGR1,2,999,229,1983,2,6,2,0,6,7,2
18,3H7Z272LX8DF6HE4Q3I4EABIXNTPLV,AAHD6IAAOUN1F,3ZVPAMTJWN9I9IIP21KBHTB5HSBGR1,2,999,230,1899,2,3,2,1,1,3,2
18,3H7Z272LX8DF6HE4Q3I4EABIXNTPLV,AAHD6IAAOUN1F,3ZVPAMTJWN9I9IIP21KBHTB5HSBGR1,2,999,231,1926,4,1,1,2,6,4,1
18,3H7Z272LX8DF6HE4Q3I4EABIXNTPLV,AAHD6IAAOUN1F,3ZVPAMTJWN9I9IIP21KBHTB5HSBGR1,2,999,232,2255,1,7,2,1,2,7,1
18,3H7Z272LX8DF6HE4Q3I4EABIXNTPLV,AAHD6IAAOUN1F,3ZVPAMTJWN9I9IIP21KBHTB5HSBGR1,3,999,233,1790,200,200,true,true,200,200,142
18,3H7Z272LX8DF6HE4Q3I4EABIXNTPLV,AAHD6IAAOUN1F,3ZVPAMTJWN9I9IIP21KBHTB5HSBGR1,2,999,234,3322,5,6,2,1,1,5,6
18,3H7Z272LX8DF6HE4Q3I4EABIXNTPLV,AAHD6IAAOUN1F,3ZVPAMTJWN9I9IIP21KBHTB5HSBGR1,2,999,235,2048,2,3,2,0,3,7,2
18,3H7Z272LX8DF6HE4Q3I4EABIXNTPLV,AAHD6IAAOUN1F,3ZVPAMTJWN9I9IIP21KBHTB5HSBGR1,2,999,236,2052,5,1,2,0,1,3,5
18,3H7Z272LX8DF6HE4Q3I4EABIXNTPLV,AAHD6IAAOUN1F,3ZVPAMTJWN9I9IIP21KBHTB5HSBGR1,2,999,237,2232,4,7,2,1,2,7,4
18,3H7Z272LX8DF6HE4Q3I4EABIXNTPLV,AAHD6IAAOUN1F,3ZVPAMTJWN9I9IIP21KBHTB5HSBGR1,2,999,238,2173,3,6,1,0,6,3,7
18,3H7Z272LX8DF6HE4Q3I4EABIXNTPLV,AAHD6IAAOUN1F,3ZVPAMTJWN9I9IIP21KBHTB5HSBGR1,2,999,239,2103,2,5,1,0,5,2,7
18,3H7Z272LX8DF6HE4Q3I4EABIXNTPLV,AAHD6IAAOUN1F,3ZVPAMTJWN9I9IIP21KBHTB5HSBGR1,2,999,240,2209,2,6,2,0,6,4,2
18,3H7Z272LX8DF6HE4Q3I4EABIXNTPLV,AAHD6IAAOUN1F,3ZVPAMTJWN9I9IIP21KBHTB5HSBGR1,2,999,241,2227,3,2,2,1,6,2,3
18,3H7Z272LX8DF6HE4Q3I4EABIXNTPLV,AAHD6IAAOUN1F,3ZVPAMTJWN9I9IIP21KBHTB5HSBGR1,2,999,242,2348,5,1,2,1,7,1,5
18,3H7Z272LX8DF6HE4Q3I4EABIXNTPLV,AAHD6IAAOUN1F,3ZVPAMTJWN9I9IIP21KBHTB5HSBGR1,2,999,243,2421,1,4,2,0,4,2,1
18,3H7Z272LX8DF6HE4Q3I4EABIXNTPLV,AAHD6IAAOUN1F,3ZVPAMTJWN9I9IIP21KBHTB5HSBGR1,2,999,244,2229,5,7,2,0,7,6,5
18,3H7Z272LX8DF6HE4Q3I4EABIXNTPLV,AAHD6IAAOUN1F,3ZVPAMTJWN9I9IIP21KBHTB5HSBGR1,2,999,245,2027,6,2,2,0,2,5,6
18,3H7Z272LX8DF6HE4Q3I4EABIXNTPLV,AAHD6IAAOUN1F,3ZVPAMTJWN9I9IIP21KBHTB5HSBGR1,2,999,246,2039,7,4,2,0,4,6,7
18,3H7Z272LX8DF6HE4Q3I4EABIXNTPLV,AAHD6IAAOUN1F,3ZVPAMTJWN9I9IIP21KBHTB5HSBGR1,2,999,247,2018,5,4,0,1,5,4,6
18,3H7Z272LX8DF6HE4Q3I4EABIXNTPLV,AAHD6IAAOUN1F,3ZVPAMTJWN9I9IIP21KBHTB5HSBGR1,2,999,248,1635,6,3,2,0,3,1,6
18,3H7Z272LX8DF6HE4Q3I4EABIXNTPLV,AAHD6IAAOUN1F,3ZVPAMTJWN9I9IIP21KBHTB5HSBGR1,2,999,249,2106,2,6,2,0,6,1,2
18,3H7Z272LX8DF6HE4Q3I4EABIXNTPLV,AAHD6IAAOUN1F,3ZVPAMTJWN9I9IIP21KBHTB5HSBGR1,2,999,250,1881,3,6,0,2,3,4,6
19,3RYC5T2D74ZQ9F9HVNF00MKH3FIPRL,A25XZ1GF9E0845,3ZVPAMTJWN9I9IIP21KBHTB5HSBGR1,1,1,7,10913,18,16,0,2,18,19,16
19,3RYC5T2D74ZQ9F9HVNF00MKH3FIPRL,A25XZ1GF9E0845,3ZVPAMTJWN9I9IIP21KBHTB5HSBGR1,1,1,15,5715,10,17,1,2,18,10,17
19,3RYC5T2D74ZQ9F9HVNF00MKH3FIPRL,A25XZ1GF9E0845,3ZVPAMTJWN9I9IIP21KBHTB5HSBGR1,1,1,16,14324,16,20,0,2,16,12,20
19,3RYC5T2D74ZQ9F9HVNF00MKH3FIPRL,A25XZ1GF9E0845,3ZVPAMTJWN9I9IIP21KBHTB5HSBGR1,2,999,18,7788,1,5,1,2,7,1,5
19,3RYC5T2D74ZQ9F9HVNF00MKH3FIPRL,A25XZ1GF9E0845,3ZVPAMTJWN9I9IIP21KBHTB5HSBGR1,2,999,19,7562,2,1,1,2,4,2,1
19,3RYC5T2D74ZQ9F9HVNF00MKH3FIPRL,A25XZ1GF9E0845,3ZVPAMTJWN9I9IIP21KBHTB5HSBGR1,2,999,20,2713,6,2,0,2,6,4,2
19,3RYC5T2D74ZQ9F9HVNF00MKH3FIPRL,A25XZ1GF9E0845,3ZVPAMTJWN9I9IIP21KBHTB5HSBGR1,2,999,21,7211,7,5,0,2,7,6,5
19,3RYC5T2D74ZQ9F9HVNF00MKH3FIPRL,A25XZ1GF9E0845,3ZVPAMTJWN9I9IIP21KBHTB5HSBGR1,2,999,22,3845,3,5,0,2,3,7,5
19,3RYC5T2D74ZQ9F9HVNF00MKH3FIPRL,A25XZ1GF9E0845,3ZVPAMTJWN9I9IIP21KBHTB5HSBGR1,2,999,23,2675,1,2,0,2,1,3,2
19,3RYC5T2D74ZQ9F9HVNF00MKH3FIPRL,A25XZ1GF9E0845,3ZVPAMTJWN9I9IIP21KBHTB5HSBGR1,2,999,24,2801,4,7,0,2,4,1,7
19,3RYC5T2D74ZQ9F9HVNF00MKH3FIPRL,A25XZ1GF9E0845,3ZVPAMTJWN9I9IIP21KBHTB5HSBGR1,2,999,25,2940,3,7,0,2,3,1,7
19,3RYC5T2D74ZQ9F9HVNF00MKH3FIPRL,A25XZ1GF9E0845,3ZVPAMTJWN9I9IIP21KBHTB5HSBGR1,2,999,26,7146,4,7,2,1,2,7,4
19,3RYC5T2D74ZQ9F9HVNF00MKH3FIPRL,A25XZ1GF9E0845,3ZVPAMTJWN9I9IIP21KBHTB5HSBGR1,2,999,27,3990,5,3,0,2,5,4,3
19,3RYC5T2D74ZQ9F9HVNF00MKH3FIPRL,A25XZ1GF9E0845,3ZVPAMTJWN9I9IIP21KBHTB5HSBGR1,2,999,28,4049,2,5,0,1,2,5,6
19,3RYC5T2D74ZQ9F9HVNF00MKH3FIPRL,A25XZ1GF9E0845,3ZVPAMTJWN9I9IIP21KBHTB5HSBGR1,2,999,29,2468,1,5,1,2,4,1,5
19,3RYC5T2D74ZQ9F9HVNF00MKH3FIPRL,A25XZ1GF9E0845,3ZVPAMTJWN9I9IIP21KBHTB5HSBGR1,3,999,30,13728,194,194,true,true,194,194,181
19,3RYC5T2D74ZQ9F9HVNF00MKH3FIPRL,A25XZ1GF9E0845,3ZVPAMTJWN9I9IIP21KBHTB5HSBGR1,2,999,31,3699,5,2,1,2,4,5,2
19,3RYC5T2D74ZQ9F9HVNF00MKH3FIPRL,A25XZ1GF9E0845,3ZVPAMTJWN9I9IIP21KBHTB5HSBGR1,2,999,32,4114,6,4,2,1,3,4,6
19,3RYC5T2D74ZQ9F9HVNF00MKH3FIPRL,A25XZ1GF9E0845,3ZVPAMTJWN9I9IIP21KBHTB5HSBGR1,2,999,33,3752,6,3,0,2,6,2,3
19,3RYC5T2D74ZQ9F9HVNF00MKH3FIPRL,A25XZ1GF9E0845,3ZVPAMTJWN9I9IIP21KBHTB5HSBGR1,2,999,34,3607,6,4,0,1,6,4,1
19,3RYC5T2D74ZQ9F9HVNF00MKH3FIPRL,A25XZ1GF9E0845,3ZVPAMTJWN9I9IIP21KBHTB5HSBGR1,2,999,35,8257,7,4,1,2,5,7,4
19,3RYC5T2D74ZQ9F9HVNF00MKH3FIPRL,A25XZ1GF9E0845,3ZVPAMTJWN9I9IIP21KBHTB5HSBGR1,2,999,36,2814,6,2,0,2,6,7,2
19,3RYC5T2D74ZQ9F9HVNF00MKH3FIPRL,A25XZ1GF9E0845,3ZVPAMTJWN9I9IIP21KBHTB5HSBGR1,2,999,37,6567,3,2,0,1,3,2,4
19,3RYC5T2D74ZQ9F9HVNF00MKH3FIPRL,A25XZ1GF9E0845,3ZVPAMTJWN9I9IIP21KBHTB5HSBGR1,2,999,38,3473,7,3,0,2,7,4,3
19,3RYC5T2D74ZQ9F9HVNF00MKH3FIPRL,A25XZ1GF9E0845,3ZVPAMTJWN9I9IIP21KBHTB5HSBGR1,2,999,39,4634,3,5,1,2,1,3,5
19,3RYC5T2D74ZQ9F9HVNF00MKH3FIPRL,A25XZ1GF9E0845,3ZVPAMTJWN9I9IIP21KBHTB5HSBGR1,2,999,40,7615,6,5,2,0,5,4,6
19,3RYC5T2D74ZQ9F9HVNF00MKH3FIPRL,A25XZ1GF9E0845,3ZVPAMTJWN9I9IIP21KBHTB5HSBGR1,2,999,41,3121,2,5,2,0,5,3,2
19,3RYC5T2D74ZQ9F9HVNF00MKH3FIPRL,A25XZ1GF9E0845,3ZVPAMTJWN9I9IIP21KBHTB5HSBGR1,2,999,42,3049,3,1,0,1,3,1,6
19,3RYC5T2D74ZQ9F9HVNF00MKH3FIPRL,A25XZ1GF9E0845,3ZVPAMTJWN9I9IIP21KBHTB5HSBGR1,2,999,43,3151,6,1,1,2,7,6,1
19,3RYC5T2D74ZQ9F9HVNF00MKH3FIPRL,A25XZ1GF9E0845,3ZVPAMTJWN9I9IIP21KBHTB5HSBGR1,2,999,44,3965,2,7,0,1,2,7,1
19,3RYC5T2D74ZQ9F9HVNF00MKH3FIPRL,A25XZ1GF9E0845,3ZVPAMTJWN9I9IIP21KBHTB5HSBGR1,2,999,45,4232,5,2,1,0,2,5,1
19,3RYC5T2D74ZQ9F9HVNF00MKH3FIPRL,A25XZ1GF9E0845,3ZVPAMTJWN9I9IIP21KBHTB5HSBGR1,2,999,46,5161,7,2,1,2,3,7,2
19,3RYC5T2D74ZQ9F9HVNF00MKH3FIPRL,A25XZ1GF9E0845,3ZVPAMTJWN9I9IIP21KBHTB5HSBGR1,2,999,47,3939,6,1,2,0,1,5,6
19,3RYC5T2D74ZQ9F9HVNF00MKH3FIPRL,A25XZ1GF9E0845,3ZVPAMTJWN9I9IIP21KBHTB5HSBGR1,2,999,48,7140,3,7,1,2,6,3,7
19,3RYC5T2D74ZQ9F9HVNF00MKH3FIPRL,A25XZ1GF9E0845,3ZVPAMTJWN9I9IIP21KBHTB5HSBGR1,2,999,49,6132,7,2,2,1,5,2,7
19,3RYC5T2D74ZQ9F9HVNF00MKH3FIPRL,A25XZ1GF9E0845,3ZVPAMTJWN9I9IIP21KBHTB5HSBGR1,2,999,50,14814,6,7,1,2,4,6,7
19,3RYC5T2D74ZQ9F9HVNF00MKH3FIPRL,A25XZ1GF9E0845,3ZVPAMTJWN9I9IIP21KBHTB5HSBGR1,2,999,51,4772,2,1,2,1,6,1,2
